pc_unix,dev_us,ax,ay,az,gx,gy,gz,mx_raw,my_raw,mz_raw,mx,my,mz,host_qw,host_qx,host_qy,host_qz,host_roll,host_pitch,host_yaw,chip_qw,chip_qx,chip_qy,chip_qz,chip_roll,chip_pitch,chip_yaw,diff_deg,rel_roll,rel_pitch,rel_yaw,cal_acc,cal_gyr,cal_mag,cal_rv
1788935692.0207381,953482804.0,-9.55859375,-0.7421875,-1.60546875,0.021484375,0.009765625,-0.03515625,34.3125,6.4375,9.5,34.3125,6.4375,9.5,0.6293830902805088,0.11047136800833048,0.7568944987858313,-0.13705371292697757,-158.10049786402263,79.43083978599046,-178.3478794675447,0.487060546875,-0.5447998046875,0.5362548828125,0.42236328125,-155.2734182776713,79.29113544196129,-68.50442907914268,53.90158140748339,,,,3,0,2,1
1788935692.02756,953487887.0,-9.59765625,-0.89453125,-1.52734375,0.0234375,0.015625,-0.025390625,33.875,5.3125,8.9375,33.875,5.3125,8.9375,0.6293926120160963,0.11034678051779692,0.7568590411843873,-0.13730593485484427,-157.9289416273416,79.42812056581961,-178.18691868979175,0.487060546875,-0.5447998046875,0.5362548828125,0.42236328125,-155.2734182776713,79.29113544196129,-68.50442907914268,53.8938154871343,,,,3,0,2,1
1788935692.0266407,953491840.0,-9.6328125,-0.89453125,-1.60546875,0.0234375,0.015625,-0.025390625,33.875,5.3125,8.9375,33.875,5.3125,8.9375,0.629390133176686,0.11024425338545357,0.7568390171361107,-0.13750987962965971,-157.79130970292067,79.42432819901659,-178.05773301522447,0.487060546875,-0.5447998046875,0.5362548828125,0.42236328125,-155.2734182776713,79.29113544196129,-68.50442907914268,53.887639494411324,,,,3,0,2,1
1788935692.0285938,953495423.0,-9.6328125,-0.89453125,-1.640625,0.017578125,0.013671875,-0.013671875,33.375,5.5,8.5625,33.375,5.5,8.5625,0.629394730098273,0.11016140480299677,0.7568174129367132,-0.13767404291344482,-157.67935680536758,79.4221890502981,-177.95253737020792,0.48712158203125,-0.54486083984375,0.53631591796875,0.4222412109375,-155.2499862783154,79.30454406731377,-68.50535516749085,53.88264648786715,,,,3,0,2,1
1788935692.0440264,953499529.0,-9.67578125,-0.89453125,-1.6796875,0.01171875,0.015625,-0.001953125,33.375,5.5,8.5625,33.375,5.5,8.5625,0.6293970049714824,0.11007546346479348,0.7567976953051756,-0.13784067199746688,-157.5654772741904,79.41958088733323,-177.84537113206815,0.48712158203125,-0.54486083984375,0.53631591796875,0.4222412109375,-155.2499862783154,79.30454406731377,-68.50535516749085,53.87783289150502,,,,3,0,2,1
1788935692.0420732,953507589.0,-9.63671875,-0.85546875,-1.6796875,0.01171875,0.01171875,0.00390625,33.375,5.5,8.5625,33.375,5.5,8.5625,0.6294191709519297,0.10992534375195387,0.7567439902031172,-0.1381537525030161,-157.35279586666084,79.41751850025294,-177.64619540892096,0.48712158203125,-0.54486083984375,0.536376953125,0.422119140625,-155.24466683201712,79.28185819837435,-68.5047330476603,53.88280206522602,,,,3,0,2,1
1788935692.0487666,953511371.0,-9.59375,-0.89453125,-1.640625,0.00390625,0.009765625,0.005859375,33.9375,3.9375,9.625,33.9375,3.9375,9.625,0.6293902956015673,0.10982176303669648,0.756757323588795,-0.13829457458919814,-157.25045145860207,79.40984394439533,-177.5470569544927,0.48712158203125,-0.54486083984375,0.536376953125,0.422119140625,-155.24466683201712,79.28185819837435,-68.5047330476603,53.88128516563781,,,,3,0,2,1
1788935692.0537543,953514554.0,-9.59375,-0.89453125,-1.60546875,-0.01171875,0.0078125,0.005859375,31.0625,5.5625,13.1875,31.0625,5.5625,13.1875,0.6293913723716213,0.10973180326498537,0.7567506643627865,-0.13839748452505515,-157.16654143135008,79.40702298629795,-177.4642643136487,0.487060546875,-0.54486083984375,0.53643798828125,0.422119140625,-155.294489646323,79.28000370184179,-68.55551853530052,53.88176044801558,,,,3,0,2,1
1788935692.057769,953519060.0,-9.59375,-0.89453125,-1.640625,-0.005859375,0.0078125,0.015625,31.0625,5.5625,13.1875,31.0625,5.5625,13.1875,0.629375951555645,0.10962523993439771,0.7567520840420147,-0.13854422279842496,-157.05805447293858,79.40114134360441,-177.35919625230858,0.487060546875,-0.54486083984375,0.53643798828125,0.422119140625,-155.294489646323,79.28000370184179,-68.55551853530052,53.88017079815235,,,,3,0,2,1
1788935692.0635223,953522443.0,-9.5546875,-0.85546875,-1.640625,-0.013671875,0.009765625,0.015625,31.0625,5.5625,13.1875,31.0625,5.5625,13.1875,0.6293625533910592,0.10953879654535979,0.756757252308322,-0.1386451929178906,-156.97908339457868,79.39628142331104,-177.28150683616332,0.4869384765625,-0.54486083984375,0.53643798828125,0.422119140625,-155.33165996630308,79.2397374064762,-68.56710208926931,53.887723838183,,,,3,0,2,1
1788935692.067531,953527726.0,-9.5546875,-0.85546875,-1.60546875,-0.025390625,0.01171875,0.017578125,30.8125,3.75,13.875,30.8125,3.75,13.875,0.6293568092915958,0.10961516307485278,0.7568110791320753,-0.13831671310915059,-157.16843321280385,79.39884168885861,-177.44997210965786,0.4869384765625,-0.54486083984375,0.53643798828125,0.422119140625,-155.33165996630308,79.2397374064762,-68.56710208926931,53.905341419361264,,,,3,0,2,1
1788935692.0715976,953532609.0,-9.515625,-0.85546875,-1.640625,-0.02734375,0.0078125,0.029296875,30.8125,3.75,13.875,30.8125,3.75,13.875,0.6293386991299245,0.10969747525251122,0.7568715313983042,-0.13800271975386996,-157.35515551470158,79.3996389091341,-177.61752889017623,0.48681640625,-0.544921875,0.5364990234375,0.42218017578125,-155.41875547592772,79.25401901400086,-68.65377357338444,53.90474123411361,,,,3,0,2,1
1788935692.0775628,953537792.0,-9.515625,-0.85546875,-1.640625,-0.029296875,0.009765625,0.03125,30.8125,5.9375,13.6875,30.8125,5.9375,13.6875,0.6293323500964997,0.1095783242465822,0.7568754066833844,-0.13810504239595695,-157.26199648896232,79.39490736338573,-177.52305719050185,0.48681640625,-0.544921875,0.5364990234375,0.42218017578125,-155.41875547592772,79.25401901400086,-68.65377357338444,53.907625513291386,,,,3,0,2,1
1788935692.0795672,953539045.0,-9.5546875,-0.85546875,-1.6796875,-0.029296875,0.009765625,0.03125,30.8125,5.9375,13.6875,30.8125,5.9375,13.6875,0.6293260786179076,0.10954916831164255,0.7568802157367498,-0.13813039317950893,-157.23988325535578,79.3930584478732,-177.50066006569784,0.48681640625,-0.544921875,0.5364990234375,0.42218017578125,-155.41875547592772,79.25401901400086,-68.65377357338444,53.9082780131831,,,,3,0,2,1
1788935692.0838687,953546328.0,-9.5546875,-0.81640625,-1.6796875,-0.025390625,0.009765625,0.033203125,30.8125,5.9375,13.6875,30.8125,5.9375,13.6875,0.6292917458827291,0.1094000768847584,0.7569016221817302,-0.13828758469270178,-157.1139237118734,79.3831570282738,-177.37553442960905,0.48663330078125,-0.544921875,0.53656005859375,0.42230224609375,-155.54230763291534,79.25278047135528,-68.76174036834132,53.898776562039025,,,,3,0,2,1
1788935692.0874271,953551910.0,-9.51953125,-0.7421875,-1.6796875,-0.03515625,0.005859375,0.041015625,31.9375,5.1875,14.5625,31.9375,5.1875,14.5625,0.6292176312736251,0.10948002214350583,0.7570116544855753,-0.13795887872434287,-157.31635393049544,79.37582372930551,-177.55752250174143,0.48663330078125,-0.544921875,0.53656005859375,0.42230224609375,-155.54230763291534,79.25278047135528,-68.76174036834132,53.91564214303367,,,,3,0,2,1
1788935692.091456,953557970.0,-9.59375,-0.77734375,-1.6796875,-0.041015625,0.0,0.041015625,31.9375,5.1875,14.5625,31.9375,5.1875,14.5625,0.629132946171234,0.10948808582632483,0.7571424939837231,-0.13762027070202257,-157.49833995941637,79.36479496427644,-177.71236780809713,0.4864501953125,-0.544921875,0.53662109375,0.4224853515625,-155.6842745055387,79.27198344212775,-68.89277359495051,53.91952794607764,,,,3,0,2,1
1788935692.0974476,953561676.0,-9.59375,-0.6640625,-1.6796875,-0.04296875,-0.00390625,0.0390625,31.9375,5.1875,14.5625,31.9375,5.1875,14.5625,0.6291407324155553,0.10957378687124228,0.7571718633829211,-0.1373546262327897,-157.65791478301065,79.36917902998397,-177.856995749091,0.4864501953125,-0.544921875,0.53662109375,0.4224853515625,-155.6842745055387,79.27198344212775,-68.89277359495051,53.931748837443294,,,,3,0,2,1
1788935692.105238,953565459.0,-9.59375,-0.703125,-1.796875,-0.037109375,-0.009765625,0.03515625,31.125,4.125,13.9375,31.125,4.125,13.9375,0.629124451632901,0.10964018415691905,0.7572170079844638,-0.1371271570284128,-157.79586768673633,79.36933707342206,-177.98163208930504,0.48626708984375,-0.544921875,0.53662109375,0.42266845703125,-155.79535627539815,79.27291913952311,-68.97905079718313,53.926213644980336,,,,3,0,2,1
1788935692.109173,953569965.0,-9.5546875,-0.6640625,-1.71875,-0.03125,-0.009765625,0.029296875,31.125,4.125,13.9375,31.125,4.125,13.9375,0.6291295922392562,0.10973275671995322,0.7572490837491395,-0.13685212249941692,-157.96316772190164,79.37342904441844,-178.13378274569934,0.48626708984375,-0.544921875,0.53662109375,0.42266845703125,-155.79535627539815,79.27291913952311,-68.97905079718313,53.93852401150869,,,,3,0,2,1
1788935692.1137352,953573148.0,-9.5546875,-0.6640625,-1.7578125,-0.037109375,-0.013671875,0.02734375,31.125,4.125,13.9375,31.125,4.125,13.9375,0.6291282425464095,0.10978497421800537,0.7572771389866455,-0.13666107212596718,-158.07572676636713,79.37516905975265,-178.23483785480593,0.486083984375,-0.544921875,0.53662109375,0.4228515625,-155.90663199734186,79.2738549175882,-69.06550453949727,53.93161527275071,,,,3,0,2,1
1788935692.117177,953577454.0,-9.59375,-0.6640625,-1.796875,-0.03515625,-0.017578125,0.01953125,31.125,4.125,13.9375,31.125,4.125,13.9375,0.6291208186298316,0.10984030768787308,0.7573176899454825,-0.1364258731663532,-158.21191468897555,79.37617414075098,-178.35614279764238,0.486083984375,-0.544921875,0.53662109375,0.4228515625,-155.90663199734186,79.2738549175882,-69.06550453949727,53.944184884664445,,,,3,0,2,1
1788935692.1192443,953581984.0,-9.59765625,-0.625,-1.8359375,-0.03515625,-0.017578125,0.01953125,31.125,4.125,13.9375,31.125,4.125,13.9375,0.6291088607039508,0.1099003931720428,0.7573624081210567,-0.13618416842453232,-158.35378525411116,79.37661572131395,-178.4829951021883,0.486083984375,-0.544921875,0.53662109375,0.4228515625,-155.90663199734186,79.2738549175882,-69.06550453949727,53.95680085016911,,,,3,0,2,1
1788935692.1257327,953585467.0,-9.55859375,-0.6640625,-1.796875,-0.02734375,-0.0234375,0.021484375,33.1875,5.0625,8.8125,33.1875,5.0625,8.8125,0.6291542732985619,0.10980357110172413,0.7573234287475956,-0.13626922041845166,-158.26888232632115,79.38036028869706,-178.39705760291093,0.48602294921875,-0.544921875,0.53656005859375,0.42303466796875,-155.9496493654267,79.29688258967407,-69.0957426535651,53.93893079898115,,,,3,0,2,1
1788935692.1290536,953589673.0,-9.55859375,-0.6640625,-1.796875,-0.013671875,-0.033203125,0.021484375,33.1875,5.0625,8.8125,33.1875,5.0625,8.8125,0.6292205968419542,0.10970182039686623,0.7572601894892654,-0.13639632152719633,-158.15823015569634,79.38690036056995,-178.2883927749432,0.48602294921875,-0.544921875,0.53656005859375,0.42303466796875,-155.9496493654267,79.29688258967407,-69.0957426535651,53.938872851882806,,,,3,0,2,1
1788935692.1344411,953597032.0,-9.51953125,-0.6640625,-1.796875,-0.013671875,-0.03515625,0.025390625,33.6875,5.8125,8.5625,33.6875,5.8125,8.5625,0.6293895654973268,0.1095539265824172,0.7571067915706385,-0.13658703515002527,-157.98226526073117,79.40690821010514,-178.11563731053727,0.48602294921875,-0.5447998046875,0.5364990234375,0.4232177734375,-155.9740130802688,79.30827329679698,-69.10599347491278,53.937189110545674,,,,3,0,2,1
1788935692.1403005,953600662.0,-9.4765625,-0.703125,-1.796875,-0.0078125,-0.046875,0.0234375,33.6875,5.8125,8.5625,33.6875,5.8125,8.5625,0.6294816948660349,0.10947821802008682,0.7570213291186565,-0.136696828299537,-157.88505742268038,79.41790586656886,-178.02106558260544,0.48602294921875,-0.5447998046875,0.5364990234375,0.4232177734375,-155.9740130802688,79.30827329679698,-69.10599347491278,53.93629260259955,,,,3,0,2,1
1788935692.143863,953604721.0,-9.4375,-0.703125,-1.796875,-0.009765625,-0.052734375,0.013671875,33.9375,3.5625,9.4375,33.9375,3.5625,9.4375,0.6294595425902263,0.10947929273566946,0.7570471008639176,-0.1366552442379654,-157.90942307925081,79.41481560683826,-178.04213404743032,0.48602294921875,-0.544677734375,0.53643798828125,0.42340087890625,-155.99849739409802,79.31964837002677,-69.11633667244996,53.93751980719072,,,,3,0,2,1
1788935692.1501865,953609028.0,-9.51953125,-0.703125,-1.796875,-0.01171875,-0.060546875,0.015625,33.9375,3.5625,9.4375,33.9375,3.5625,9.4375,0.6294505116857027,0.10948108096373149,0.7570636096597205,-0.13660394276379462,-157.9366003517781,79.41368188526842,-178.06523781915448,0.48602294921875,-0.544677734375,0.53643798828125,0.42340087890625,-155.99849739409802,79.31964837002677,-69.11633667244996,53.94112127483012,,,,3,0,2,1
1788935692.1527104,953612987.0,-9.4765625,-0.7421875,-1.796875,-0.01171875,-0.06640625,0.015625,30.875,2.9375,13.6875,30.875,2.9375,13.6875,0.6295231693340437,0.10954379651905236,0.7570265919080251,-0.136423880094117,-158.03594680494902,79.42650455020521,-178.15467531576644,0.48614501953125,-0.5445556640625,0.53631591796875,0.42364501953125,-155.9727109077484,79.37382638190451,-69.09339344228104,53.93470489538227,,,,3,0,2,1
1788935692.1544533,953616964.0,-9.4765625,-0.703125,-1.796875,-0.01171875,-0.06640625,0.015625,30.875,2.9375,13.6875,30.875,2.9375,13.6875,0.6295986627415192,0.10961021698187264,0.7569869214672377,-0.13624215549833232,-158.13725913378974,79.43982477259388,-178.2462399846134,0.48614501953125,-0.5445556640625,0.53631591796875,0.42364501953125,-155.9727109077484,79.37382638190451,-69.09339344228104,53.94283070281259,,,,3,0,2,1
1788935692.1553235,953620193.0,-9.48046875,-0.703125,-1.7578125,-0.00390625,-0.06640625,0.015625,30.875,2.9375,13.6875,30.875,2.9375,13.6875,0.6296640796193221,0.10967356707695411,0.7569488699934835,-0.13610019741851004,-158.21984326416492,79.45147484194815,-178.32213701929862,0.48614501953125,-0.5445556640625,0.53631591796875,0.42364501953125,-155.9727109077484,79.37382638190451,-69.09339344228104,53.94821124846557,,,,3,0,2,1
1788935692.1669238,953625029.0,-9.515625,-0.703125,-1.7578125,-0.01171875,-0.0703125,0.01171875,30.25,6.5625,13.1875,30.25,6.5625,13.1875,0.6297803027593715,0.10955241031418209,0.7568348010319002,-0.13629425372212772,-158.06008465230823,79.46456928177777,-178.16818876379642,0.48626708984375,-0.54443359375,0.53619384765625,0.42388916015625,-155.94677083700577,79.42822299242827,-69.07037578330304,53.930438263128,,,,3,0,2,1
1788935692.1669238,953628159.0,-9.515625,-0.7421875,-1.71875,0.001953125,-0.078125,0.01171875,30.25,6.5625,13.1875,30.25,6.5625,13.1875,0.629869823848347,0.10948355072892064,0.7567449599836725,-0.13643468277659507,-157.9504285379465,79.47532546326994,-178.0642714730683,0.48626708984375,-0.54443359375,0.53619384765625,0.42388916015625,-155.94677083700577,79.42822299242827,-69.07037578330304,53.926611078559965,,,,3,0,2,1
1788935692.168605,953632189.0,-9.515625,-0.7421875,-1.71875,0.001953125,-0.078125,0.01171875,30.25,6.5625,13.1875,30.25,6.5625,13.1875,0.6299838964588526,0.10939489057226653,0.7566301346240811,-0.13661583911812145,-157.80894383088855,79.4889521295512,-177.93020828087347,0.48626708984375,-0.54443359375,0.53619384765625,0.42388916015625,-155.94677083700577,79.42822299242827,-69.07037578330304,53.92166232425482,,,,3,0,2,1
1788935692.1705582,953636171.0,-9.59765625,-0.7421875,-1.71875,0.001953125,-0.08203125,0.015625,31.375,5.9375,13.25,31.375,5.9375,13.25,0.6300841693784599,0.1093039177387683,0.7565284306500626,-0.13678935149991145,-157.67233709716373,79.50046915260889,-177.80023484217148,0.48638916015625,-0.54425048828125,0.53607177734375,0.42413330078125,-155.92067321079074,79.46660222234055,-69.03995789305642,53.91385307354668,,,,3,0,2,1
1788935692.1786513,953640578.0,-9.59765625,-0.703125,-1.71875,0.001953125,-0.0859375,0.01171875,31.375,5.9375,13.25,31.375,5.9375,13.25,0.6301976871552248,0.10920243824906069,0.7564120198286557,-0.13699109037962645,-157.5152871051249,79.51347309562199,-177.65125846236663,0.48638916015625,-0.54425048828125,0.53607177734375,0.42413330078125,-155.92067321079074,79.46660222234055,-69.03995789305642,53.908510111223485,,,,3,0,2,1
1788935692.1806045,953643660.0,-9.63671875,-0.7421875,-1.7578125,0.009765625,-0.08984375,0.021484375,31.75,3.9375,14.625,31.75,3.9375,14.625,0.6302754898354093,0.10926892700905828,0.756358271089032,-0.1368768580083371,-157.58316194588892,79.5270818159928,-177.71496616538175,0.486572265625,-0.54400634765625,0.535888671875,0.42437744140625,-155.84364608161005,79.49065580486365,-68.9503079521911,53.91909655551111,,,,3,0,2,1
1788935692.1879556,953647967.0,-9.5546875,-0.7421875,-1.7578125,0.005859375,-0.09765625,0.01171875,31.75,3.9375,14.625,31.75,3.9375,14.625,0.6303893934350152,0.10933509073304967,0.7562801979078777,-0.13673080425218884,-157.66054727739004,79.54602573972743,-177.7854415996671,0.486572265625,-0.54400634765625,0.535888671875,0.42437744140625,-155.84364608161005,79.49065580486365,-68.9503079521911,53.92481923432464,,,,3,0,2,1
1788935692.1888413,953652296.0,-9.59765625,-0.703125,-1.7578125,0.005859375,-0.09765625,0.01171875,31.75,3.9375,14.625,31.75,3.9375,14.625,0.6305101238653202,0.10940865804050501,0.7561961858857685,-0.13657985832812378,-157.7422583244266,79.56617851817758,-177.86043154062332,0.486572265625,-0.54400634765625,0.535888671875,0.42437744140625,-155.84364608161005,79.49065580486365,-68.9503079521911,53.93030321226871,,,,3,0,2,1
1788935692.1942606,953656279.0,-9.59765625,-0.6640625,-1.7578125,0.015625,-0.103515625,0.015625,31.5625,4.0625,14.0,31.5625,4.0625,14.0,0.6306241921535459,0.10949601780981995,0.7561102832598173,-0.13645874799087804,-157.81590832081767,79.58565761713555,-177.93097738675192,0.48681640625,-0.54376220703125,0.5357666015625,0.42462158203125,-155.77866777197536,79.55401786730201,-68.90016193987124,53.93249724924022,,,,3,0,2,1
1788935692.1978586,953659809.0,-9.55859375,-0.625,-1.640625,0.025390625,-0.103515625,0.017578125,31.5625,4.0625,14.0,31.5625,4.0625,14.0,0.6307565493255288,0.10960019917320882,0.7560058116527393,-0.13634215991918147,-157.89090816766532,79.60826153489286,-178.00458707667963,0.48681640625,-0.54376220703125,0.5357666015625,0.42462158203125,-155.77866777197536,79.55401786730201,-68.90016193987124,53.932801514634605,,,,3,0,2,1
1788935692.2033749,953664168.0,-9.51953125,-0.625,-1.60546875,0.029296875,-0.1015625,0.01171875,31.5625,4.0625,14.0,31.5625,4.0625,14.0,0.6309242269139737,0.10972597256179892,0.7558717173589486,-0.13620858172378827,-157.9769719863554,79.63666752177207,-178.08954850553076,0.48712158203125,-0.54345703125,0.53558349609375,0.42486572265625,-155.66178888047207,79.60305303850947,-68.78986329630524,53.94393065596863,,,,3,0,2,1
1788935692.207866,953667298.0,-9.515625,-0.6640625,-1.71875,0.025390625,-0.103515625,0.0078125,31.5625,4.0625,14.0,31.5625,4.0625,14.0,0.6310109688154654,0.10979374562015562,0.7558033281796479,-0.13613162663331324,-158.02662404443274,79.65145245905553,-178.13820425844986,0.48712158203125,-0.54345703125,0.53558349609375,0.42486572265625,-155.66178888047207,79.60305303850947,-68.78986329630524,53.94422538785516,,,,3,0,2,1
1788935692.2098336,953671851.0,-9.51953125,-0.625,-1.640625,0.025390625,-0.103515625,0.0078125,31.5625,4.0625,14.0,31.5625,4.0625,14.0,0.6311705107463218,0.1099081113520029,0.7556775213803624,-0.13599807757352644,-158.11034573767733,79.6783222279724,-178.21990997241858,0.48712158203125,-0.54345703125,0.53558349609375,0.42486572265625,-155.66178888047207,79.60305303850947,-68.78986329630524,53.94508944020708,,,,3,0,2,1
1788935692.211581,953675510.0,-9.515625,-0.6640625,-1.52734375,0.025390625,-0.107421875,0.00390625,34.6875,5.8125,10.4375,34.6875,5.8125,10.4375,0.6313601431746645,0.10984328690562006,0.7554971644239649,-0.13617215750506922,-157.96619958384497,79.7037667089176,-178.08438421190178,0.4874267578125,-0.54315185546875,0.53546142578125,0.425048828125,-155.5570974741591,79.64998206979391,-68.7010862720359,53.95582221788197,,,,3,0,2,1
1788935692.211581,953679340.0,-9.48046875,-0.625,-1.52734375,0.009765625,-0.099609375,-0.00390625,34.6875,5.8125,10.4375,34.6875,5.8125,10.4375,0.6315509858718028,0.1097510123290461,0.7553211976857338,-0.1363376538733598,-157.81479979689468,79.72857369807797,-177.93863843524892,0.4874267578125,-0.54315185546875,0.53546142578125,0.425048828125,-155.5570974741591,79.64998206979391,-68.7010862720359,53.95274817006894,,,,3,0,2,1
1788935692.2204137,953683500.0,-9.515625,-0.703125,-1.48828125,0.005859375,-0.103515625,-0.0078125,34.6875,5.8125,10.4375,34.6875,5.8125,10.4375,0.6317621963542166,0.10963293859800989,0.755129130840033,-0.1365179174644768,-157.64165059365493,79.75550738400709,-177.77019867361827,0.48773193359375,-0.54296875,0.53521728515625,0.42529296875,-155.4060930127523,79.71336078517724,-68.55730472763645,53.943232737989646,,,,3,0,2,1
1788935692.2204137,953686876.0,-9.515625,-0.6640625,-1.48828125,0.005859375,-0.103515625,-0.0078125,34.6875,5.8125,10.4375,34.6875,5.8125,10.4375,0.6319365860764206,0.10954087379037322,0.7549705762837345,-0.1366615421145463,-157.50273038961768,79.77786015165456,-177.63518329872463,0.48773193359375,-0.54296875,0.53521728515625,0.42529296875,-155.4060930127523,79.71336078517724,-68.55730472763645,53.94167865270751,,,,3,0,2,1
1788935692.2274153,953691482.0,-9.515625,-0.703125,-1.48828125,-0.0078125,-0.095703125,-0.00390625,34.6875,5.8125,10.4375,34.6875,5.8125,10.4375,0.6321598816757987,0.109398670274207,0.7547734810194556,-0.1368313096175326,-157.3216176545202,79.80574383256501,-177.4559058409297,0.48773193359375,-0.54296875,0.53521728515625,0.42529296875,-155.4060930127523,79.71336078517724,-68.55730472763645,53.94291453739531,,,,3,0,2,1
1788935692.2274153,953695342.0,-9.55859375,-0.703125,-1.44921875,-0.013671875,-0.09375,-0.01171875,33.9375,4.75,9.8125,33.9375,4.75,9.8125,0.6323576398583994,0.10926770026938805,0.7546040086775446,-0.1369568365520107,-157.17096662392882,79.83030588454247,-177.30441661928612,0.48797607421875,-0.54278564453125,0.53497314453125,0.425537109375,-155.2731595628649,79.75591355260818,-68.41842734136725,53.94217527929338,,,,3,0,2,1
1788935692.2385745,953698471.0,-9.59375,-0.703125,-1.44921875,-0.009765625,-0.08984375,-0.0078125,33.9375,4.75,9.8125,33.9375,4.75,9.8125,0.6325143070356372,0.10917177238784828,0.7544682761459445,-0.13705763677479058,-157.05346257012732,79.84994772009296,-177.1870051437391,0.48797607421875,-0.54278564453125,0.53497314453125,0.425537109375,-155.2731595628649,79.75591355260818,-68.41842734136725,53.944075090365196,,,,3,0,2,1
1788935692.2420254,953702831.0,-9.59375,-0.6640625,-1.44921875,0.00390625,-0.072265625,-0.015625,33.9375,4.75,9.8125,33.9375,4.75,9.8125,0.6327055180226181,0.10905924833842867,0.7542951061504917,-0.13721771260666676,-156.89240456813894,79.87386092198042,-177.02949920837398,0.4881591796875,-0.54266357421875,0.53472900390625,0.42572021484375,-155.13983367725592,79.77280674555293,-68.26837150173412,53.94083326591743,,,,3,0,2,1
1788935692.2440002,953706807.0,-9.59765625,-0.6640625,-1.4140625,0.00390625,-0.072265625,-0.015625,33.9375,4.75,9.8125,33.9375,4.75,9.8125,0.6328852305856724,0.10896235902243245,0.7541333381561287,-0.13735500538488188,-156.7504964027887,79.89659421019968,-176.89057183181646,0.4881591796875,-0.54266357421875,0.53472900390625,0.42572021484375,-155.13983367725592,79.77280674555293,-68.26837150173412,53.94024497992091,,,,3,0,2,1
1788935692.2479498,953711014.0,-9.63671875,-0.6640625,-1.3359375,0.009765625,-0.0703125,-0.017578125,33.9375,4.75,9.8125,33.9375,4.75,9.8125,0.6330794280866111,0.10887627738412718,0.7539573449189696,-0.13749442170227055,-156.60828821531987,79.92170127807819,-176.75237628755687,0.4881591796875,-0.54266357421875,0.53472900390625,0.42572021484375,-155.13983367725592,79.77280674555293,-68.26837150173412,53.9386553861613,,,,3,0,2,1
1788935692.2479498,953715073.0,-9.55859375,-0.703125,-1.296875,0.009765625,-0.056640625,-0.015625,31.0,3.8125,13.3125,31.0,3.8125,13.3125,0.6332503630530089,0.10891043623953885,0.7538249293218804,-0.13740622440125497,-156.63346834693442,79.9480048140155,-176.77268065141857,0.48834228515625,-0.54254150390625,0.53460693359375,0.42584228515625,-155.0526125052491,79.80678477547421,-68.18781335589586,53.94302030786002,,,,3,0,2,1
1788935692.2479498,953718779.0,-9.59375,-0.6640625,-1.296875,0.00390625,-0.05078125,-0.021484375,31.0,3.8125,13.3125,31.0,3.8125,13.3125,0.6333948638187736,0.10893433932042257,0.7537157419361052,-0.13732019721267028,-156.6587481531373,79.97014255074075,-176.79248291066054,0.48834228515625,-0.54254150390625,0.53460693359375,0.42584228515625,-155.0526125052491,79.80678477547421,-68.18781335589586,53.94825776781275,,,,3,0,2,1
1788935692.2570846,953722232.0,-9.59765625,-0.703125,-1.3359375,0.00390625,-0.05078125,-0.021484375,31.0,3.8125,13.3125,31.0,3.8125,13.3125,0.6335251555407707,0.1089559601431941,0.7536192975896542,-0.13723130235770994,-156.68745687692433,79.99015538066394,-176.81532266901488,0.48834228515625,-0.54254150390625,0.53460693359375,0.42584228515625,-155.0526125052491,79.80678477547421,-68.18781335589586,53.953827090121614,,,,3,0,2,1
1788935692.2652595,953726215.0,-9.59765625,-0.7421875,-1.375,0.015625,-0.03515625,-0.013671875,32.0625,3.625,13.375,32.0625,3.625,13.375,0.6336370583918007,0.10901684894449637,0.7535373357168964,-0.13711633221275993,-156.74880604677668,80.00877711282561,-176.8719151189325,0.488525390625,-0.54254150390625,0.53448486328125,0.4259033203125,-154.94710174669288,79.85310227665981,-68.09854386258263,53.94438825216611,,,,3,0,2,1
1788935692.2675455,953730621.0,-9.59765625,-0.703125,-1.375,0.013671875,-0.01953125,-0.017578125,32.0625,3.625,13.375,32.0625,3.625,13.375,0.6337306226890733,0.1090862412599469,0.7534720903135824,-0.1369872218580137,-156.8245763566078,80.02502931923382,-176.94250046739938,0.488525390625,-0.54254150390625,0.53448486328125,0.4259033203125,-154.94710174669288,79.85310227665981,-68.09854386258263,53.948536075787864,,,,3,0,2,1
1788935692.2749007,953733904.0,-9.5546875,-0.7421875,-1.375,0.01953125,-0.009765625,-0.015625,31.4375,4.125,13.6875,31.4375,4.125,13.6875,0.633802364582962,0.10912967183940339,0.7534206574969143,-0.13690358004883416,-156.8710311626658,80.03712891099238,-176.98544642455676,0.4886474609375,-0.54248046875,0.534423828125,0.42584228515625,-154.85508087039238,79.83770764585864,-68.00664080285864,53.9679865798828,,,,3,0,2,1
1788935692.2749007,953738010.0,-9.51953125,-0.77734375,-1.296875,0.017578125,-0.0078125,-0.009765625,31.4375,4.125,13.6875,31.4375,4.125,13.6875,0.6339143461908675,0.10916136295353461,0.7533341103413699,-0.13683609438926728,-156.89681207974508,80.0546813943674,-177.00799948249173,0.4886474609375,-0.54248046875,0.534423828125,0.42584228515625,-154.85508087039238,79.83770764585864,-68.00664080285864,53.97097611479373,,,,3,0,2,1
1788935692.2729042,953742140.0,-9.515625,-0.703125,-1.3359375,0.017578125,-0.0078125,-0.009765625,31.4375,4.125,13.6875,31.4375,4.125,13.6875,0.6340094176489399,0.1092261514853339,0.7532636820446258,-0.1367316037963703,-156.95828848099708,80.07089754922026,-177.06594641427728,0.4886474609375,-0.54248046875,0.534423828125,0.42584228515625,-154.85508087039238,79.83770764585864,-68.00664080285864,53.97371730872458,,,,3,0,2,1
1788935692.2749007,953746323.0,-9.515625,-0.6640625,-1.48828125,0.00390625,0.001953125,-0.013671875,31.5,5.875,13.5625,31.5,5.875,13.5625,0.6340460288179814,0.10913557214239053,0.7532139156015675,-0.13690820858317895,-156.82375167265096,80.07283326762618,-176.9384857008319,0.48870849609375,-0.54248046875,0.534423828125,0.42578125,-154.81646619698316,79.83738827865838,-67.97629047154207,53.97427091034796,,,,3,0,2,1
1788935692.2749007,953749453.0,-9.44140625,-0.6640625,-1.4140625,0.015625,0.005859375,-0.01171875,31.5,5.875,13.5625,31.5,5.875,13.5625,0.6340849736914943,0.10909223032042296,0.7531652410076923,-0.1370301104144534,-156.7358356355961,80.0767123261412,-176.85699921488953,0.48870849609375,-0.54248046875,0.534423828125,0.42578125,-154.81646619698316,79.83738827865838,-67.97629047154207,53.96922329707387,,,,3,0,2,1
1788935692.290979,953754012.0,-9.44140625,-0.703125,-1.375,0.0390625,0.009765625,-0.015625,31.5,5.875,13.5625,31.5,5.875,13.5625,0.6341289756391452,0.10905209237770104,0.7530941583623593,-0.1372489418661707,-156.5980154366424,80.08098830379627,-176.73387397777935,0.48870849609375,-0.54248046875,0.534423828125,0.4256591796875,-154.77816459619712,79.7944704978261,-67.9283227681252,53.975261222612595,,,,3,0,2,1
1788935692.290979,953758118.0,-9.44140625,-0.703125,-1.3359375,0.03515625,0.015625,-0.009765625,31.5,5.875,13.5625,31.5,5.875,13.5625,0.6341700523497551,0.10902859653211372,0.753032024197302,-0.13741863183084121,-156.4927188184433,80.08551780447814,-176.640584023686,0.48870849609375,-0.54248046875,0.534423828125,0.4256591796875,-154.77816459619712,79.7944704978261,-67.9283227681252,53.96492264304058,,,,3,0,2,1
1788935692.290979,953761795.0,-9.515625,-0.6640625,-1.375,0.03515625,0.015625,-0.009765625,31.5,5.875,13.5625,31.5,5.875,13.5625,0.6342112715713434,0.10901728761552124,0.7529723237344068,-0.137564434730863,-156.4045222238739,80.09052237044153,-176.5634204268838,0.48870849609375,-0.54248046875,0.534423828125,0.4256591796875,-154.77816459619712,79.7944704978261,-67.9283227681252,53.955301849375736,,,,3,0,2,1
1788935692.2997406,953765354.0,-9.515625,-0.6640625,-1.4140625,0.021484375,0.021484375,-0.00390625,31.625,5.8125,13.875,31.625,5.8125,13.875,0.634249943242122,0.10900299353369348,0.7529216034441364,-0.13767503755281588,-156.33378397889342,80.09521057816808,-176.50056578246014,0.48876953125,-0.54248046875,0.5345458984375,0.425537109375,-154.7869912504029,79.81134006041161,-67.9685991550443,53.95630241678593,,,,3,0,2,1
1788935692.306741,953768984.0,-9.59765625,-0.6640625,-1.52734375,0.013671875,0.037109375,-0.009765625,31.625,5.8125,13.875,31.625,5.8125,13.875,0.6342213151884436,0.10895315199200109,0.7529222007331081,-0.13784300372112418,-156.23277921806408,80.08872579062677,-176.40941914954598,0.48876953125,-0.54248046875,0.5345458984375,0.425537109375,-154.7869912504029,79.81134006041161,-67.9685991550443,53.947955922328866,,,,3,0,2,1
1788935692.31046,953773343.0,-9.59765625,-0.625,-1.52734375,0.021484375,0.0390625,-0.017578125,33.8125,4.8125,9.5,33.8125,4.8125,9.5,0.634195694816508,0.10887884963566846,0.7529175511376719,-0.1380448404217686,-156.10403428864853,80.08173434320359,-176.2913178371965,0.48876953125,-0.54254150390625,0.53466796875,0.42535400390625,-154.79684160251009,79.8024653888099,-67.9991209294804,53.94886832066363,,,,3,0,2,1
1788935692.31046,953777850.0,-9.5546875,-0.5859375,-1.52734375,0.029296875,0.04296875,-0.033203125,33.8125,4.8125,9.5,33.8125,4.8125,9.5,0.634166225905231,0.10880334016644762,0.7529101984201889,-0.13827965940300732,-155.95873312053843,80.07393678548382,-176.15929817793025,0.48876953125,-0.54254150390625,0.53466796875,0.42535400390625,-154.79684160251009,79.8024653888099,-67.9991209294804,53.9378043077392,,,,3,0,2,1
1788935692.31046,953781526.0,-9.515625,-0.5859375,-1.48828125,0.029296875,0.04296875,-0.033203125,33.8125,4.8125,9.5,33.8125,4.8125,9.5,0.6341548096649385,0.10875069358851006,0.752895303280382,-0.1384544196520463,-155.84994934103412,80.0697390425456,-176.06066772438288,0.48876953125,-0.54254150390625,0.53466796875,0.42535400390625,-154.79684160251009,79.8024653888099,-67.9991209294804,53.929335609966415,,,,3,0,2,1
1788935692.322777,953785185.0,-9.51953125,-0.625,-1.56640625,0.02734375,0.044921875,-0.044921875,33.6875,4.875,9.25,33.6875,4.875,9.25,0.6340939570433655,0.10864826139495815,0.752919868793954,-0.13867977542610357,-155.70580469811725,80.05650010457212,-175.92688375549662,0.48876953125,-0.54266357421875,0.53472900390625,0.42510986328125,-154.75533354575677,79.7696816355866,-67.96661271994266,53.93242017348077,,,,3,0,2,1
1788935692.322777,953789492.0,-9.4765625,-0.6640625,-1.56640625,0.01171875,0.05078125,-0.060546875,33.6875,4.875,9.25,33.6875,4.875,9.25,0.6339989044347472,0.10847339714582445,0.7529764948311263,-0.1389435479574899,-155.5209175401838,80.03574765092819,-175.7496643903011,0.48876953125,-0.54266357421875,0.53472900390625,0.42510986328125,-154.75533354575677,79.7696816355866,-67.96661271994266,53.92754617940217,,,,3,0,2,1
1788935692.320824,953792575.0,-9.51953125,-0.6640625,-1.56640625,0.017578125,0.052734375,-0.06640625,33.6875,4.875,9.25,33.6875,4.875,9.25,0.6339307141590909,0.10834968757542048,0.7530148786248622,-0.13914304660182583,-155.38413816230454,80.02080114449807,-175.61937939556825,0.48876953125,-0.5428466796875,0.53472900390625,0.4248046875,-154.662976631153,79.71317193358914,-67.8717304985306,53.936040689905624,,,,3,0,2,1
1788935692.322777,953796251.0,-9.515625,-0.625,-1.52734375,0.017578125,0.052734375,-0.06640625,33.6875,4.875,9.25,33.6875,4.875,9.25,0.6338790237218552,0.10822103390962325,0.7530364377538312,-0.1393618115553188,-155.23236820087516,80.00792516597431,-175.47525541353718,0.48876953125,-0.5428466796875,0.53472900390625,0.4248046875,-154.662976631153,79.71317193358914,-67.8717304985306,53.930761194753494,,,,3,0,2,1
1788935692.322777,953800857.0,-9.48046875,-0.5859375,-1.48828125,0.025390625,0.056640625,-0.072265625,33.6875,4.875,9.25,33.6875,4.875,9.25,0.6338330897682161,0.10809198992523944,0.7530454691802783,-0.13962183703107817,-155.05841379434014,79.99555463505862,-175.31231649802186,0.48876953125,-0.5428466796875,0.53472900390625,0.4248046875,-154.662976631153,79.71317193358914,-67.8717304985306,53.92250227853899,,,,3,0,2,1
1788935692.3388426,953804917.0,-9.4765625,-0.625,-1.44921875,0.0390625,0.060546875,-0.076171875,34.25,7.0,8.625,34.25,7.0,8.625,0.6337729297738472,0.10797698014485844,0.753063793893354,-0.13988483681807312,-154.89193798502984,79.98148198219964,-175.15828885417903,0.48883056640625,-0.5430908203125,0.53472900390625,0.42437744140625,-154.51536664410847,79.65195201530007,-67.73238989846578,53.929177571932655,,,,3,0,2,1
1788935692.3478696,953808823.0,-9.51953125,-0.625,-1.44921875,0.04296875,0.06640625,-0.083984375,34.25,7.0,8.625,34.25,7.0,8.625,0.6337043890841162,0.10786230173916152,0.7530884569773058,-0.1401508012342341,-154.72636789874934,79.96611917876272,-175.0054603561116,0.48883056640625,-0.5430908203125,0.53472900390625,0.42437744140625,-154.51536664410847,79.65195201530007,-67.73238989846578,53.91907008488362,,,,3,0,2,1
1788935692.3476748,953812853.0,-9.55859375,-0.625,-1.44921875,0.04296875,0.06640625,-0.083984375,34.25,7.0,8.625,34.25,7.0,8.625,0.6336345717750017,0.1077450180129541,0.7531131069569913,-0.14042396047144418,-154.5568729410511,79.95036935259755,-174.8490932433349,0.48883056640625,-0.5430908203125,0.53472900390625,0.42437744140625,-154.51536664410847,79.65195201530007,-67.73238989846578,53.90866695465437,,,,3,0,2,1
1788935692.354733,953816835.0,-9.55859375,-0.5859375,-1.44921875,0.048828125,0.068359375,-0.0859375,31.125,5.9375,13.4375,31.125,5.9375,13.4375,0.633600417569948,0.10773938767041868,0.7531097381045762,-0.14060034698267065,-154.47236275924558,79.94403872635228,-174.77879307953913,0.48895263671875,-0.5433349609375,0.5347900390625,0.4239501953125,-154.38287902961383,79.63065872039273,-67.63476450575072,53.90495022371639,,,,3,0,2,1
1788935692.354733,953820265.0,-9.59765625,-0.625,-1.4140625,0.05078125,0.080078125,-0.083984375,31.125,5.9375,13.4375,31.125,5.9375,13.4375,0.6335547403697656,0.10771548249412491,0.753119747556079,-0.14077077689323345,-154.38651357396023,79.9354704183343,-174.70518730462538,0.48895263671875,-0.5433349609375,0.5347900390625,0.4239501953125,-154.38287902961383,79.63065872039273,-67.63476450575072,53.89408984078665,,,,3,0,2,1
1788935692.3527799,953827101.0,-9.63671875,-0.625,-1.4140625,0.044921875,0.083984375,-0.087890625,31.375,4.9375,13.875,31.375,4.9375,13.875,0.6333919262004672,0.10778452467610704,0.7532446471076631,-0.14078233436074108,-154.44388739455442,79.9141534721053,-174.7695585676485,0.48907470703125,-0.5435791015625,0.53485107421875,0.42340087890625,-154.21452045575018,79.56721118593377,-67.49225682707554,53.913599273692554,,,,3,0,2,1
1788935692.3688807,953832460.0,-9.67578125,-0.703125,-1.44921875,0.041015625,0.091796875,-0.091796875,31.375,4.9375,13.875,31.375,4.9375,13.875,0.6332439648085469,0.10781678593721797,0.7533654743353012,-0.14077671605512893,-154.49224354916,79.89388759012361,-174.82043743478218,0.48907470703125,-0.5435791015625,0.53485107421875,0.42340087890625,-154.21452045575018,79.56721118593377,-67.49225682707554,53.91009167756478,,,,3,0,2,1
1788935692.3643885,953842426.0,-9.63671875,-0.77734375,-1.48828125,0.05078125,0.099609375,-0.0859375,31.625,4.0,14.3125,31.625,4.0,14.3125,0.6328280492545499,0.10792318048088086,0.7537077120861887,-0.14073354942363725,-154.64692843861405,79.83759350686631,-174.9812427485923,0.4891357421875,-0.54388427734375,0.534912109375,0.4228515625,-154.06811232236424,79.49968203822053,-67.36587869802024,53.921037150695646,,,,3,0,2,1
1788935692.3847399,953852192.0,-9.59765625,-0.89453125,-1.48828125,0.046875,0.1171875,-0.076171875,31.625,4.0,14.3125,31.625,4.0,14.3125,0.6323570421369803,0.10801470956596256,0.7541110253337968,-0.14061989634173372,-154.84145104628914,79.77326458748443,-175.17496588978418,0.4891357421875,-0.544189453125,0.5350341796875,0.4222412109375,-153.95617905934276,79.40989672654301,-67.27080641793415,53.947531383093896,,,,3,0,2,1
1788935692.386693,953856175.0,-9.55859375,-0.85546875,-1.48828125,0.04296875,0.103515625,-0.064453125,31.625,4.0,14.3125,31.625,4.0,14.3125,0.6321940363009819,0.10806781219853714,0.75425165474315,-0.14055778082096532,-154.92776701423583,79.75181684200648,-175.26088146595714,0.4891357421875,-0.54449462890625,0.53521728515625,0.421630859375,-153.87787335812155,79.339104211376,-67.22283930241025,53.97220840793767,,,,3,0,2,1
1788935692.39753,953859204.0,-9.59765625,-0.89453125,-1.52734375,0.05078125,0.111328125,-0.064453125,31.625,4.0,14.3125,31.625,4.0,14.3125,0.6320486605922851,0.10811142513924048,0.7543746094514744,-0.14051818036395153,-154.99510490891797,79.73245579092338,-175.32886263479554,0.4891357421875,-0.54449462890625,0.53521728515625,0.421630859375,-153.87787335812155,79.339104211376,-67.22283930241025,53.97021515089087,,,,3,0,2,1
1788935692.4027033,953867540.0,-9.55859375,-0.93359375,-1.60546875,0.046875,0.11328125,-0.0625,32.125,4.3125,14.6875,32.125,4.3125,14.6875,0.6315487818753027,0.10817784140333112,0.7547975071100891,-0.14044363282659686,-155.1624334223475,79.6627774683112,-175.49664552164862,0.4891357421875,-0.5447998046875,0.535400390625,0.42108154296875,-153.8186707673562,79.28902669777723,-67.19807560955837,53.982769232983905,,,,3,0,2,1
1788935692.4027033,953871070.0,-9.59375,-1.0078125,-1.640625,0.04296875,0.115234375,-0.0546875,32.125,4.3125,14.6875,32.125,4.3125,14.6875,0.6313183618983873,0.10818635184722708,0.7549937864408607,-0.14041802462510602,-155.22611557305166,79.62988956471196,-175.55944874325616,0.4891357421875,-0.5447998046875,0.535400390625,0.42108154296875,-153.8186707673562,79.28902669777723,-67.19807560955837,53.982211060244325,,,,3,0,2,1
1788935692.4027033,953875229.0,-9.55859375,-1.0078125,-1.6796875,0.041015625,0.111328125,-0.0390625,33.0,7.125,9.125,33.0,7.125,9.125,0.6311476321301366,0.10811274611888276,0.7551010196208632,-0.14066538575885867,-155.1111833763141,79.60140061819295,-175.45934378392323,0.48907470703125,-0.5450439453125,0.53564453125,0.4205322265625,-153.80866850058624,79.22149281941462,-67.21716148572271,53.996981150169816,,,,3,0,2,1
1788935692.4027033,953879335.0,-9.55859375,-1.046875,-1.71875,0.029296875,0.103515625,-0.03515625,33.0,7.125,9.125,33.0,7.125,9.125,0.6309891122136598,0.10802565938219702,0.7552038762169097,-0.1408911016700965,-154.99992740486442,79.5743490858318,-175.35999001760274,0.48907470703125,-0.5450439453125,0.53564453125,0.4205322265625,-153.80866850058624,79.22149281941462,-67.21716148572271,53.98672946120521,,,,3,0,2,1
1788935692.416902,953882518.0,-9.59765625,-0.96875,-1.71875,0.02734375,0.099609375,-0.02734375,33.0,7.125,9.125,33.0,7.125,9.125,0.6308767367616422,0.10796771066195443,0.7552754398802164,-0.1410550473437364,-154.92085014603947,79.55525370557064,-175.2899884628553,0.48895263671875,-0.54522705078125,0.535888671875,0.420166015625,-153.86895359859926,79.17949055400614,-67.30008980048764,53.99401518103299,,,,3,0,2,1
1788935692.4188552,953886495.0,-9.5546875,-0.93359375,-1.7578125,0.02734375,0.099609375,-0.02734375,33.0,7.125,9.125,33.0,7.125,9.125,0.6307322495392412,0.1078946475727782,0.7553677556450501,-0.14126262119921978,-154.82168366560228,79.5307497619039,-175.2023449880707,0.48895263671875,-0.54522705078125,0.535888671875,0.420166015625,-153.86895359859926,79.17949055400614,-67.30008980048764,53.983994137430244,,,,3,0,2,1
1788935692.4188552,953890601.0,-9.5546875,-0.93359375,-1.7578125,0.021484375,0.09765625,-0.021484375,33.0,7.125,9.125,33.0,7.125,9.125,0.630589453134284,0.10782037846474343,0.7554605456612883,-0.1414604946006931,-154.72689808519425,79.50649296442775,-175.11817824073827,0.48895263671875,-0.54522705078125,0.535888671875,0.420166015625,-153.86895359859926,79.17949055400614,-67.30008980048764,53.974825829270785,,,,3,0,2,1
1788935692.4188552,953894760.0,-9.5546875,-0.89453125,-1.7578125,0.013671875,0.083984375,-0.01953125,33.125,5.5,8.75,33.125,5.5,8.75,0.6304357685335197,0.10771659854712706,0.7555667828553988,-0.14165702522829537,-154.62457714516137,79.47969912816212,-175.0239687630555,0.48876953125,-0.54541015625,0.53607177734375,0.4197998046875,-153.91535430776432,79.09955887144633,-67.34403577197001,53.99076249901917,,,,3,0,2,1
1788935692.435019,953898667.0,-9.5546875,-0.89453125,-1.7578125,0.001953125,0.078125,-0.01953125,33.125,5.5,8.75,33.125,5.5,8.75,0.6303029387833382,0.10760319802392,0.755662135444701,-0.14182557664704565,-154.5284538597754,79.455758848692,-174.9328023582375,0.48876953125,-0.54541015625,0.53607177734375,0.4197998046875,-153.91535430776432,79.09955887144633,-67.34403577197001,53.98732521936442,,,,3,0,2,1
1788935692.4259913,953902696.0,-9.51953125,-0.89453125,-1.6796875,0.001953125,0.078125,-0.01953125,33.125,5.5,8.75,33.125,5.5,8.75,0.6301858849709464,0.10749033872826712,0.7557441343193004,-0.14199429884836484,-154.42950423009546,79.43408366202829,-174.83883190243148,0.48876953125,-0.54541015625,0.53607177734375,0.4197998046875,-153.91535430776432,79.09955887144633,-67.34403577197001,53.98395964758665,,,,3,0,2,1
1788935692.435019,953906679.0,-9.515625,-0.89453125,-1.71875,-0.00390625,0.078125,-0.013671875,35.125,5.5,9.5,35.125,5.5,9.5,0.6300457600546607,0.10737388128791833,0.7558482964091047,-0.1421497192039686,-154.3410181679232,79.40904080934165,-174.7539847957243,0.4886474609375,-0.54559326171875,0.5362548828125,0.4195556640625,-153.97881332986216,79.08000427919164,-67.4250442489665,53.9819495798841,,,,3,0,2,1
1788935692.4460294,953910109.0,-9.5546875,-0.89453125,-1.7578125,-0.01171875,0.07421875,-0.009765625,35.125,5.5,9.5,35.125,5.5,9.5,0.6299230898134208,0.10726946165394369,0.7559428071615341,-0.14226958851815735,-154.27084225876044,79.3871354354191,-174.68545229551142,0.4886474609375,-0.54559326171875,0.5362548828125,0.4195556640625,-153.97881332986216,79.08000427919164,-67.4250442489665,53.981423873934766,,,,3,0,2,1
1788935692.450776,953914368.0,-9.59765625,-0.89453125,-1.71875,-0.01171875,0.07421875,-0.013671875,31.5625,5.0,13.375,31.5625,5.0,13.375,0.6297008310351306,0.10725703866829389,0.7561461490751765,-0.14218225025844514,-154.3559738336178,79.35538467815438,-174.76286666395652,0.48846435546875,-0.5457763671875,0.536376953125,0.41943359375,-154.0641324199757,79.06285990699632,-67.51059337744162,53.97641012761077,,,,3,0,2,1
1788935692.450776,953918675.0,-9.515625,-0.89453125,-1.7578125,-0.01171875,0.064453125,-0.005859375,31.5625,5.0,13.375,31.5625,5.0,13.375,0.6294890357179472,0.10725227290597722,0.7563382327489526,-0.14210201106804127,-154.43775519277207,79.325328372522,-174.8381237810542,0.48846435546875,-0.5457763671875,0.536376953125,0.41943359375,-154.0641324199757,79.06285990699632,-67.51059337744162,53.981175823077585,,,,3,0,2,1
1788935692.448823,953921728.0,-9.55859375,-0.81640625,-1.7578125,-0.01171875,0.064453125,-0.005859375,31.5625,5.0,13.375,31.5625,5.0,13.375,0.6293520741306252,0.1072776060922917,0.7564653922808255,-0.14201264838036037,-154.518760689189,79.30706438993607,-174.91414201853001,0.48846435546875,-0.5457763671875,0.536376953125,0.41943359375,-154.0641324199757,79.06285990699632,-67.51059337744162,53.984516503885885,,,,3,0,2,1
1788935692.450776,953926010.0,-9.55859375,-0.81640625,-1.7578125,-0.01171875,0.060546875,-0.0078125,30.5,5.1875,13.375,30.5,5.1875,13.375,0.6291534234656895,0.10729178225171085,0.756646200622628,-0.14191888629071273,-154.61035561129972,79.27957759161512,-174.9996192952388,0.48828125,-0.5458984375,0.53643798828125,0.41925048828125,-154.0989130739693,78.99231925959432,-67.52259486828247,54.00171720832426,,,,3,0,2,1
1788935692.4705846,953930317.0,-9.59765625,-0.77734375,-1.71875,-0.013671875,0.05859375,-0.009765625,30.5,5.1875,13.375,30.5,5.1875,13.375,0.6289811339230466,0.10733339012226535,0.7568101364493518,-0.14177691596749384,-154.7291275276265,79.2570648675936,-175.11047241606624,0.48828125,-0.5458984375,0.53643798828125,0.41925048828125,-154.0989130739693,78.99231925959432,-67.52259486828247,54.007247784353865,,,,3,0,2,1
1788935692.4747603,953933700.0,-9.5546875,-0.77734375,-1.71875,-0.01953125,0.052734375,-0.001953125,30.5,5.1875,13.375,30.5,5.1875,13.375,0.6288527712785283,0.10736448665645783,0.7569350378747812,-0.14165594762597827,-154.82462208277082,79.24036843638127,-175.19881780489393,0.48809814453125,-0.54608154296875,0.53656005859375,0.419189453125,-154.20115481765478,78.99519698346924,-67.6289949455398,53.99230369671773,,,,3,0,2,1
1788935692.4747603,953937806.0,-9.55859375,-0.77734375,-1.640625,-0.021484375,0.048828125,-0.005859375,30.5,5.1875,13.375,30.5,5.1875,13.375,0.6287723151819734,0.10742237856488508,0.7570336654145384,-0.14144199402296445,-154.96438596876104,79.23198184835292,-175.32581887923345,0.48809814453125,-0.54608154296875,0.53656005859375,0.419189453125,-154.20115481765478,78.99519698346924,-67.6289949455398,54.00239134786177,,,,3,0,2,1
1788935692.4747603,953942159.0,-9.59375,-0.77734375,-1.6796875,-0.021484375,0.048828125,-0.005859375,30.5,5.1875,13.375,30.5,5.1875,13.375,0.6286416530196642,0.10746860508623143,0.7571715791154416,-0.14124932137660767,-155.09954551249388,79.21581080181491,-175.44914272019454,0.48809814453125,-0.54608154296875,0.53656005859375,0.419189453125,-154.20115481765478,78.99519698346924,-67.6289949455398,54.01158642945533,,,,3,0,2,1
1788935692.482454,953946118.0,-9.55859375,-0.77734375,-1.6796875,-0.029296875,0.048828125,0.0,32.0625,6.125,14.1875,32.0625,6.125,14.1875,0.6285402037599845,0.10735952804161708,0.7572488414955966,-0.14136950183690633,-155.02304948115267,79.19699087071261,-175.37388393331776,0.4879150390625,-0.54620361328125,0.53662109375,0.41912841796875,-154.27082256962728,78.96484277767189,-67.68368371062003,54.00617453250505,,,,3,0,2,1
1788935692.482454,953949848.0,-9.59765625,-0.81640625,-1.6796875,-0.033203125,0.04296875,0.00390625,32.0625,6.125,14.1875,32.0625,6.125,14.1875,0.6284645758829461,0.10724493778875159,0.7573092905622285,-0.14146886090970542,-154.94959040958983,79.18182535917047,-175.29942293241157,0.4879150390625,-0.54620361328125,0.53662109375,0.41912841796875,-154.27082256962728,78.96484277767189,-67.68368371062003,54.0084475964642,,,,3,0,2,1
1788935692.4925604,953953031.0,-9.55859375,-0.81640625,-1.71875,-0.0234375,0.04296875,0.001953125,32.0625,6.125,14.1875,32.0625,6.125,14.1875,0.6283572479600406,0.10716453160823969,0.7573947672981743,-0.1415489264198602,-154.9041402909481,79.16330219903568,-175.2542597034762,0.48773193359375,-0.54638671875,0.53662109375,0.4190673828125,-154.3108084633887,78.93204664680309,-67.7018464973376,53.995724274393815,,,,3,0,2,1
1788935692.4945135,953957584.0,-9.55859375,-0.81640625,-1.7578125,-0.0234375,0.04296875,0.001953125,32.0625,6.125,14.1875,32.0625,6.125,14.1875,0.6281767080987702,0.10707373802237254,0.7575436433532864,-0.14162226676316622,-154.87304125035845,79.13395256557097,-175.22221770076334,0.48773193359375,-0.54638671875,0.53662109375,0.4190673828125,-154.3108084633887,78.93204664680309,-67.7018464973376,53.99706029124104,,,,3,0,2,1
1788935692.4985404,953960914.0,-9.51953125,-0.85546875,-1.7578125,-0.017578125,0.03515625,-0.00390625,32.0625,6.125,14.1875,32.0625,6.125,14.1875,0.6280588562352557,0.10699158825315744,0.757638460584647,-0.1416998101285088,-154.83059940377353,79.11387177713911,-175.17973801039062,0.48773193359375,-0.54638671875,0.53662109375,0.4190673828125,-154.3108084633887,78.93204664680309,-67.7018464973376,53.99778172422584,,,,3,0,2,1
1788935692.5022368,953964873.0,-9.515625,-0.89453125,-1.71875,-0.021484375,0.029296875,0.00390625,31.25,5.0625,13.5625,31.25,5.0625,13.5625,0.6279255896674911,0.10696633673636809,0.7577720965629727,-0.14159486684372555,-154.89808016420034,79.09455852160126,-175.2367826740502,0.48760986328125,-0.54644775390625,0.53668212890625,0.4190673828125,-154.37857979234263,78.92597986429882,-67.76452819572306,53.99961638885864,,,,3,0,2,1
1788935692.5022368,953968979.0,-9.48046875,-0.93359375,-1.71875,-0.029296875,0.033203125,0.009765625,31.25,5.0625,13.5625,31.25,5.0625,13.5625,0.6277762241266844,0.1069028690397361,0.7579201250451933,-0.14151280176646355,-154.94415029265204,79.07155622071531,-175.2712119901638,0.48760986328125,-0.54644775390625,0.53668212890625,0.4190673828125,-154.37857979234263,78.92597986429882,-67.76452819572306,54.01024435410223,,,,3,0,2,1
1788935692.5086358,953976715.0,-9.4765625,-0.96875,-1.6796875,-0.033203125,0.03125,0.017578125,33.8125,6.0625,10.0,33.8125,6.0625,10.0,0.6277358614431823,0.1066908427027779,0.7579560120197258,-0.1416595785138096,-154.80771186564058,79.05801968533233,-175.12960992483187,0.4874267578125,-0.54656982421875,0.53668212890625,0.41912841796875,-154.45233814286982,78.91777747667726,-67.81811105941692,53.997650248015006,,,,3,0,2,1
1788935692.5126288,953981221.0,-9.4765625,-0.96875,-1.640625,-0.041015625,0.037109375,0.029296875,33.8125,6.0625,10.0,33.8125,6.0625,10.0,0.6277169421776655,0.1065816686258296,0.7579777814694264,-0.14170910773391232,-154.7495107213146,79.05146447941158,-175.0665889236672,0.4874267578125,-0.54656982421875,0.53668212890625,0.41912841796875,-154.45233814286982,78.91777747667726,-67.81811105941692,54.003564054580565,,,,3,0,2,1
1788935692.5146253,953984481.0,-9.51953125,-0.96875,-1.640625,-0.041015625,0.03515625,0.025390625,34.3125,4.6875,9.9375,34.3125,4.6875,9.9375,0.6276873684805673,0.106482779381263,0.7580082047846307,-0.14175170765942455,-154.70042649287223,79.04374603087854,-175.0129823622011,0.4871826171875,-0.546630859375,0.5367431640625,0.419189453125,-154.57335822905264,78.89256136659836,-67.9136138409248,54.000206804211494,,,,3,0,2,1
1788935692.5146253,953988987.0,-9.51953125,-0.96875,-1.6796875,-0.048828125,0.0390625,0.033203125,34.3125,4.6875,9.9375,34.3125,4.6875,9.9375,0.6276209161077806,0.10634622802390993,0.7580756034446058,-0.14178802809551147,-154.6485436060577,79.02954750800143,-174.95305482042576,0.4871826171875,-0.546630859375,0.5367431640625,0.419189453125,-154.57335822905264,78.89256136659836,-67.9136138409248,54.00920161014315,,,,3,0,2,1
1788935692.5285583,953992140.0,-9.51953125,-0.93359375,-1.6796875,-0.048828125,0.0390625,0.033203125,34.3125,4.6875,9.9375,34.3125,4.6875,9.9375,0.6275764188439253,0.10625157297823862,0.7581208470179013,-0.14181404397147712,-154.61194949628438,79.01992009785866,-174.91095012772857,0.4871826171875,-0.546630859375,0.5367431640625,0.419189453125,-154.57335822905264,78.89256136659836,-67.9136138409248,54.0153886307425,,,,3,0,2,1
1788935692.5305114,953996323.0,-9.515625,-0.85546875,-1.6796875,-0.0390625,0.041015625,0.0390625,33.625,3.5625,9.5625,33.625,3.5625,9.5625,0.6274878217743263,0.1063595691209362,0.758230179113985,-0.14154035135640414,-154.79659673063477,79.01248809775839,-175.08202291234338,0.48687744140625,-0.5467529296875,0.536865234375,0.4193115234375,-154.76122515083463,78.9006211739263,-68.08713680109236,53.996357345952354,,,,3,0,2,1
1788935692.5305114,954000229.0,-9.48046875,-0.81640625,-1.640625,-0.052734375,0.044921875,0.04296875,33.625,3.5625,9.5625,33.625,3.5625,9.5625,0.6274577961485582,0.1064738990559917,0.7582955463924069,-0.1412369894668177,-154.98562235103475,79.01376942321022,-175.2553947513566,0.48687744140625,-0.5467529296875,0.536865234375,0.4193115234375,-154.76122515083463,78.9006211739263,-68.08713680109236,54.00831734072665,,,,3,0,2,1
1788935692.547057,954007918.0,-9.48046875,-0.81640625,-1.640625,-0.056640625,0.041015625,0.0390625,32.6875,6.1875,9.9375,32.6875,6.1875,9.9375,0.6274570943220525,0.10631039693433392,0.7583194362377348,-0.14123500597470573,-154.9290546011159,79.00845174519979,-175.18523408336884,0.486572265625,-0.54681396484375,0.5369873046875,0.41943359375,-154.9477948209396,78.89342115877994,-68.2531442923234,54.00525605447914,,,,3,0,2,1
1788935692.54901,954008695.0,-9.4765625,-0.7421875,-1.6796875,-0.056640625,0.041015625,0.0390625,32.6875,6.1875,9.9375,32.6875,6.1875,9.9375,0.6274570641172867,0.10629474539361175,0.7583216477789173,-0.1412350462912449,-154.9235269274005,79.00794599403284,-175.17842419173425,0.486572265625,-0.54681396484375,0.5369873046875,0.41943359375,-154.9477948209396,78.89342115877994,-68.2531442923234,54.00664528671002,,,,3,0,2,1
1788935692.551454,954012678.0,-9.51953125,-0.703125,-1.6796875,-0.05859375,0.044921875,0.03125,32.6875,6.1875,9.9375,32.6875,6.1875,9.9375,0.6274556968364238,0.10620785662680589,0.7583347672381632,-0.14123604531456782,-154.89272355402247,79.0049591415223,-175.1405698638348,0.4862060546875,-0.54693603515625,0.53704833984375,0.4195556640625,-155.12263400892223,78.86430456987391,-68.38823688813541,53.9925961753239,,,,3,0,2,1
1788935692.5573785,954018160.0,-9.51953125,-0.703125,-1.6796875,-0.056640625,0.048828125,0.021484375,31.5,3.6875,13.75,31.5,3.6875,13.75,0.6273863747950891,0.10630167021321486,0.7584543756913903,-0.1408305777377209,-155.13010110642313,79.00052557086177,-175.35225325141133,0.4862060546875,-0.54693603515625,0.53704833984375,0.4195556640625,-155.12263400892223,78.86430456987391,-68.38823688813541,54.013574727565015,,,,3,0,2,1
1788935692.5627863,954022643.0,-9.4765625,-0.625,-1.6796875,-0.04296875,0.05078125,0.017578125,31.5,3.6875,13.75,31.5,3.6875,13.75,0.6273237592292522,0.10639607384061822,0.7585488453301453,-0.14052909245449638,-155.31730458293563,78.99631630706467,-175.52240613860548,0.48590087890625,-0.547119140625,0.537109375,0.41961669921875,-155.26219095455673,78.85006140432507,-68.50278675784314,53.999309715023664,,,,3,0,2,1
1788935692.5675147,954027926.0,-9.51953125,-0.625,-1.6796875,-0.0390625,0.052734375,0.005859375,32.6875,3.6875,15.125,32.6875,3.6875,15.125,0.6272449921842275,0.1064859605294553,0.7586628791082594,-0.14019663281653633,-155.52039021138967,78.98971905299246,-175.7055479569773,0.48590087890625,-0.547119140625,0.537109375,0.41961669921875,-155.26219095455673,78.85006140432507,-68.50278675784314,54.01522864469883,,,,3,0,2,1
1788935692.5655615,954031879.0,-9.515625,-0.625,-1.71875,-0.0390625,0.052734375,0.005859375,32.6875,3.6875,15.125,32.6875,3.6875,15.125,0.6271786953773271,0.1065522060467252,0.7587540640954745,-0.13994921103732927,-155.67258310711776,78.98361055117162,-175.84286550078144,0.48590087890625,-0.547119140625,0.537109375,0.41961669921875,-155.26219095455673,78.85006140432507,-68.50278675784314,54.02709651381401,,,,3,0,2,1
1788935692.5741348,954035462.0,-9.515625,-0.625,-1.71875,-0.03515625,0.048828125,0.001953125,31.5,4.875,14.1875,31.5,4.875,14.1875,0.6271152092746562,0.10661665564488224,0.7588356466374959,-0.1397421354773077,-155.8045044573905,78.97757543512299,-175.96309785182206,0.48565673828125,-0.54730224609375,0.537109375,0.41961669921875,-155.33578034736703,78.81793229046113,-68.5463018698349,54.017433996695615,,,,3,0,2,1
1788935692.571602,954039368.0,-9.51953125,-0.625,-1.6796875,-0.03125,0.052734375,0.0,31.5,4.875,14.1875,31.5,4.875,14.1875,0.6270561879113224,0.10669246276459407,0.7589146746491131,-0.1395197914045773,-155.9466364483944,78.97256509859625,-176.09320005951284,0.48565673828125,-0.54730224609375,0.537109375,0.41961669921875,-155.33578034736703,78.81793229046113,-68.5463018698349,54.02666544270153,,,,3,0,2,1
1788935692.5746331,954047428.0,-9.515625,-0.5859375,-1.71875,-0.021484375,0.05078125,-0.01171875,31.5,4.875,14.1875,31.5,4.875,14.1875,0.626903561088878,0.10683862687094087,0.7590918685565149,-0.139129321114545,-156.20941517890196,78.95695691488075,-176.33604753314233,0.4854736328125,-0.5474853515625,0.53717041015625,0.4195556640625,-155.403507714609,78.80299330303748,-68.60559603039333,54.024511383723734,,,,3,0,2,1
1788935692.5785682,954051410.0,-9.515625,-0.5859375,-1.71875,-0.017578125,0.048828125,-0.015625,30.375,4.6875,13.9375,30.375,4.6875,13.9375,0.626830819234282,0.10690749883652594,0.7591758235650776,-0.13894595951262195,-156.33283119623135,78.94941393108915,-176.45012721223708,0.4854736328125,-0.5474853515625,0.53717041015625,0.4195556640625,-155.403507714609,78.80299330303748,-68.60559603039333,54.03141242908889,,,,3,0,2,1
1788935692.598576,954057323.0,-9.51953125,-0.55078125,-1.6796875,-0.005859375,0.0546875,-0.02734375,30.6875,5.0625,14.0,30.6875,5.0625,14.0,0.6267376183842699,0.10702257041009516,0.759277035057755,-0.13872458743400265,-156.49386119828353,78.94043445587621,-176.60252268844118,0.4853515625,-0.54766845703125,0.5372314453125,0.41937255859375,-155.41795774990845,78.76798986673448,-68.61571855080939,54.03453939262991,,,,3,0,2,1
1788935692.598576,954059476.0,-9.48046875,-0.5859375,-1.71875,-0.005859375,0.0546875,-0.02734375,30.6875,5.0625,14.0,30.6875,5.0625,14.0,0.6266908190354354,0.1070623443400666,0.7593247557165193,-0.13864410235257885,-156.55389017723485,78.93522256895132,-176.659275270524,0.4853515625,-0.54766845703125,0.5372314453125,0.41937255859375,-155.41795774990845,78.76798986673448,-68.61571855080939,54.0366221723257,,,,3,0,2,1
1788935692.6045003,954067535.0,-9.44140625,-0.5859375,-1.71875,-0.001953125,0.056640625,-0.037109375,30.6875,5.0625,14.0,30.6875,5.0625,14.0,0.6264957502840504,0.10719076260099518,0.7595157344153908,-0.1383801447625028,-156.75686436115691,78.91198274598622,-176.85144281678475,0.4852294921875,-0.54791259765625,0.5372314453125,0.419189453125,-155.40322585539693,78.73068190011305,-68.58986136505237,54.03325965723315,,,,3,0,2,1
1788935692.6103911,954070942.0,-9.4375,-0.625,-1.6796875,-0.001953125,0.0625,-0.044921875,31.125,4.125,13.9375,31.125,4.125,13.9375,0.6264142862931819,0.10722690885381872,0.7595983821955801,-0.13826724019562975,-156.83644456197575,78.90173530949885,-176.9248531436514,0.4852294921875,-0.54791259765625,0.5372314453125,0.419189453125,-155.40322585539693,78.73068190011305,-68.58986136505237,54.03782410501171,,,,3,0,2,1
1788935692.617497,954078231.0,-9.40234375,-0.6640625,-1.640625,-0.00390625,0.0703125,-0.060546875,34.0,6.5,9.6875,34.0,6.5,9.6875,0.6262951993770484,0.10695917145676301,0.7596748156653466,-0.13859377086423352,-156.6104285468778,78.87516719711145,-176.70415586656148,0.48516845703125,-0.54815673828125,0.5372314453125,0.4189453125,-155.35344237785978,78.69305345655259,-68.53723046527492,54.03197350375259,,,,3,0,2,1
1788935692.6194935,954078431.0,-9.4765625,-0.703125,-1.640625,-0.00390625,0.0703125,-0.060546875,34.0,6.5,9.6875,34.0,6.5,9.6875,0.626291900457925,0.10695174535995215,0.7596769419567297,-0.13860275410153955,-156.60420797984648,78.8744290828405,-176.69807677964621,0.48516845703125,-0.54815673828125,0.5372314453125,0.4189453125,-155.35344237785978,78.69305345655259,-68.53723046527492,54.031947327714384,,,,3,0,2,1
1788935692.617497,954082860.0,-9.4765625,-0.77734375,-1.6796875,-0.00390625,0.0703125,-0.060546875,34.0,6.5,9.6875,34.0,6.5,9.6875,0.6262071956876197,0.10677647598593412,0.759732981999389,-0.1388132857740509,-156.45952072543702,78.85599371883902,-176.55662343930294,0.48516845703125,-0.54815673828125,0.5372314453125,0.4189453125,-155.35344237785978,78.69305345655259,-68.53723046527492,54.031401021336244,,,,3,0,2,1
1788935692.6260924,954086943.0,-9.51953125,-0.81640625,-1.71875,-0.001953125,0.0703125,-0.0625,33.5,5.375,8.875,33.5,5.375,8.875,0.6261174342414612,0.1066009711649932,0.7597938151773338,-0.13901996224945978,-156.3178999296238,78.83677872922524,-176.41791247597325,0.485107421875,-0.5484619140625,0.5372314453125,0.4185791015625,-155.26999127079335,78.63138924556428,-68.44932284296677,54.03345662370725,,,,3,0,2,1
1788935692.6241393,954091950.0,-9.51953125,-0.81640625,-1.71875,0.0,0.076171875,-0.060546875,33.5,5.375,8.875,33.5,5.375,8.875,0.6259970506787269,0.10639514242417408,0.7598756954484103,-0.13927201325776006,-156.15064368887974,78.81194261169904,-176.2549087782286,0.485107421875,-0.5484619140625,0.5372314453125,0.4185791015625,-155.26999127079335,78.63138924556428,-68.44932284296677,54.03234092338131,,,,3,0,2,1
1788935692.6305478,954097809.0,-9.51953125,-0.81640625,-1.7578125,0.005859375,0.07421875,-0.060546875,33.5,5.375,8.875,33.5,5.375,8.875,0.6258469036779464,0.1061586486804087,0.7599742795115433,-0.1395890000966684,-155.9488430777643,78.78146170777434,-176.060293944205,0.48504638671875,-0.54876708984375,0.5372314453125,0.41827392578125,-155.20458423201393,78.58930805211236,-68.38352924443336,54.0221178612636,,,,3,0,2,1
1788935692.6344829,954098662.0,-9.515625,-0.85546875,-1.796875,0.005859375,0.072265625,-0.060546875,33.5,5.375,8.875,33.5,5.375,8.875,0.62582283229861,0.1061226855247354,0.7599903634200009,-0.1396366918094913,-155.91870903626258,78.77664065669642,-176.03121370838554,0.48504638671875,-0.54876708984375,0.5372314453125,0.41827392578125,-155.20458423201393,78.58930805211236,-68.38352924443336,54.021638057783825,,,,3,0,2,1
1788935692.6401415,954102692.0,-9.55859375,-0.85546875,-1.8359375,0.005859375,0.072265625,-0.060546875,33.5,5.375,8.875,33.5,5.375,8.875,0.6257006985983858,0.10595031972915701,0.7600728845300284,-0.13986556304174194,-155.77572862983666,78.75252350856066,-175.89332649383053,0.48504638671875,-0.54876708984375,0.5372314453125,0.41827392578125,-155.20458423201393,78.58930805211236,-68.38352924443336,54.019281920845955,,,,3,0,2,1
1788935692.6420946,954106475.0,-9.59375,-0.85546875,-1.8359375,0.005859375,0.068359375,-0.048828125,33.25,4.875,9.9375,33.25,4.875,9.9375,0.6255465387408966,0.10580070984495038,0.760183247798448,-0.14006843838706712,-155.65903110338826,78.72459458554623,-175.78152213688412,0.4849853515625,-0.54901123046875,0.53729248046875,0.41790771484375,-155.15113292685015,78.53030641884672,-68.33263873347455,54.0265901493433,,,,3,0,2,1
1788935692.6420946,954109804.0,-9.5546875,-0.85546875,-1.796875,0.005859375,0.06640625,-0.046875,33.25,4.875,9.9375,33.25,4.875,9.9375,0.6254302469407007,0.10566951073421584,0.7602640031825303,-0.14024837317330724,-155.55271958915574,78.702778748455,-175.67962334192546,0.4849853515625,-0.54901123046875,0.53729248046875,0.41790771484375,-155.15113292685015,78.53030641884672,-68.33263873347455,54.02422895806436,,,,3,0,2,1
1788935692.6420946,954117493.0,-9.515625,-0.89453125,-1.8359375,0.013671875,0.060546875,-0.04296875,30.4375,3.5625,12.6875,30.4375,3.5625,12.6875,0.6251420429930855,0.10573744722126273,0.760523224252989,-0.14007656374069027,-155.70773150885825,78.66441171892325,-175.82671975363692,0.48492431640625,-0.54925537109375,0.537353515625,0.4176025390625,-155.11524279678162,78.49073342769947,-68.3032512551736,54.029546404282065,,,,3,0,2,1
1788935692.6581883,954117770.0,-9.51953125,-0.85546875,-1.91015625,0.013671875,0.060546875,-0.04296875,30.4375,3.5625,12.6875,30.4375,3.5625,12.6875,0.6251310023084815,0.10573987212587525,0.760532957485284,-0.14007116039457937,-155.71304896295024,78.66292876414727,-175.8318170072677,0.48492431640625,-0.54925537109375,0.537353515625,0.4176025390625,-155.11524279678162,78.49073342769947,-68.3032512551736,54.02964840845436,,,,3,0,2,1
1788935692.6542532,954123229.0,-9.515625,-0.89453125,-1.91015625,0.01171875,0.052734375,-0.037109375,30.4375,3.5625,12.6875,30.4375,3.5625,12.6875,0.6249250519697104,0.10578428181187045,0.7607165933147828,-0.13995938624384266,-155.816716856485,78.635286636104,-175.9304012123989,0.48492431640625,-0.54949951171875,0.53741455078125,0.41729736328125,-155.0622535174675,78.46999442885132,-68.26879238134714,54.02945000853502,,,,3,0,2,1
1788935692.6581883,954125306.0,-9.4765625,-0.93359375,-1.94921875,0.01171875,0.052734375,-0.037109375,31.0,5.4375,14.0,31.0,5.4375,14.0,0.6248186442041966,0.10575128637871688,0.7608012424112696,-0.139999274389352,-155.80645943026886,78.61875085877199,-175.92100583557138,0.48492431640625,-0.54949951171875,0.53741455078125,0.41729736328125,-155.0622535174675,78.46999442885132,-68.26879238134714,54.028693351383346,,,,3,0,2,1
1788935692.6581883,954129212.0,-9.44140625,-0.93359375,-2.02734375,0.01953125,0.046875,-0.03515625,31.0,5.4375,14.0,31.0,5.4375,14.0,0.6246257068024231,0.10571174313717682,0.7609515490909874,-0.14007317266521652,-155.79411121462232,78.58939033159112,-175.9120184617862,0.48492431640625,-0.54949951171875,0.53741455078125,0.41729736328125,-155.0622535174675,78.46999442885132,-68.26879238134714,54.025411216209825,,,,3,0,2,1
1788935692.6740546,954137471.0,-9.3984375,-0.96875,-1.98828125,0.025390625,0.033203125,-0.03515625,31.0,5.4375,14.0,31.0,5.4375,14.0,0.6242586019138673,0.10560405964461198,0.7612278216204408,-0.14028964364528027,-155.72540763991873,78.53212774247575,-175.85332989155376,0.48492431640625,-0.54962158203125,0.5374755859375,0.41705322265625,-155.0249493868274,78.43927851528535,-68.2415286680133,54.026910716233445,,,,3,0,2,1
1788935692.6760077,954141254.0,-9.3984375,-1.0078125,-2.02734375,0.025390625,0.02734375,-0.033203125,31.5,4.3125,15.0625,31.5,4.3125,15.0625,0.6241248408194789,0.10561512124875619,0.7613397843418549,-0.14026889182555283,-155.7625480355186,78.5133627802721,-175.89000349646076,0.48492431640625,-0.54962158203125,0.5374755859375,0.41705322265625,-155.0249493868274,78.43927851528535,-68.2415286680133,54.02650839110037,,,,3,0,2,1
1788935692.6865911,954147367.0,-9.3984375,-0.96875,-1.98828125,0.017578125,-0.00390625,-0.0234375,31.3125,5.8125,14.0625,31.3125,5.8125,14.0625,0.6239523609830852,0.10550251956949018,0.7614609431497757,-0.14046316828826363,-155.66779156257186,78.48404318924435,-175.80252657475023,0.4849853515625,-0.5496826171875,0.5374755859375,0.4168701171875,-154.95758948805474,78.41506504568136,-68.18097544873676,54.033370549513535,,,,3,0,2,1
1788935692.6865911,954149720.0,-9.3984375,-0.96875,-2.02734375,0.017578125,-0.00390625,-0.0234375,31.3125,5.8125,14.0625,31.3125,5.8125,14.0625,0.6238844727434848,0.1054644355159561,0.7615093988316876,-0.1405306123301487,-155.63678103546118,78.47274111152956,-175.77414696088852,0.4849853515625,-0.5496826171875,0.5374755859375,0.4168701171875,-154.95758948805474,78.41506504568136,-68.18097544873676,54.03133855736734,,,,3,0,2,1
1788935692.687988,954153103.0,-9.3984375,-0.96875,-1.98828125,0.021484375,-0.009765625,-0.017578125,31.3125,5.8125,14.0625,31.3125,5.8125,14.0625,0.6237967719216106,0.10541376519119273,0.761568879184277,-0.14063558477994914,-155.58827565575598,78.45799222806046,-175.73039771319847,0.48504638671875,-0.5496826171875,0.5374755859375,0.416748046875,-154.90638137655515,78.39551198867849,-68.13428662644587,54.04200577024017,,,,3,0,2,1
1788935692.6899412,954157609.0,-9.44140625,-1.0078125,-1.98828125,0.013671875,-0.01953125,-0.015625,31.4375,3.5625,14.5625,31.4375,3.5625,14.5625,0.623753912751284,0.10545335023389416,0.7616176364783571,-0.1405319289593385,-155.6559206335301,78.45364533457489,-175.79282106996683,0.48504638671875,-0.5496826171875,0.5374755859375,0.416748046875,-154.90638137655515,78.39551198867849,-68.13428662644587,54.04578721578069,,,,3,0,2,1
1788935692.69897,954163268.0,-9.4375,-1.0078125,-1.94921875,0.001953125,-0.0234375,-0.009765625,31.4375,3.5625,14.5625,31.4375,3.5625,14.5625,0.623721756890101,0.10549571902258342,0.7616702370132008,-0.14035766205693392,-155.75431202418787,78.45129110648146,-175.8803447915301,0.48516845703125,-0.5496826171875,0.53741455078125,0.416748046875,-154.84274158358681,78.41603653759762,-68.08163782599466,54.05059075915672,,,,3,0,2,1
1788935692.705647,954167675.0,-9.4375,-1.046875,-1.8359375,0.001953125,-0.033203125,-0.0078125,30.875,5.125,13.5,30.875,5.125,13.5,0.6236743718720652,0.1053588636823579,0.7617052657462166,-0.14048087360218317,-155.6614643739231,78.4395788575425,-175.78657888679203,0.48516845703125,-0.5496826171875,0.53741455078125,0.416748046875,-154.84274158358681,78.41603653759762,-68.08163782599466,54.05340134065786,,,,3,0,2,1
1788935692.7036939,954172804.0,-9.515625,-1.0078125,-1.87109375,0.001953125,-0.033203125,-0.0078125,30.875,5.125,13.5,30.875,5.125,13.5,0.6236022727401278,0.10523248009817787,0.761763667650793,-0.14057896433302625,-155.58802995622136,78.42476067320086,-175.71107055476404,0.48516845703125,-0.5496826171875,0.53741455078125,0.416748046875,-154.84274158358681,78.41603653759762,-68.08163782599466,54.05695994369693,,,,3,0,2,1
1788935692.705647,954176787.0,-9.55859375,-1.0078125,-1.796875,-0.009765625,-0.037109375,-0.00390625,34.25,6.375,10.3125,34.25,6.375,10.3125,0.6236798022362883,0.10510457772343623,0.7616901920086244,-0.14072875833299817,-155.4639908280368,78.4310429204494,-175.5887292494041,0.48529052734375,-0.54962158203125,0.53729248046875,0.41680908203125,-154.76589539793284,78.42429852947654,-68.00064277185777,54.059584898077254,,,,3,0,2,1
1788935692.705647,954180393.0,-9.6328125,-0.96875,-1.796875,-0.021484375,-0.0390625,0.0,34.25,6.375,10.3125,34.25,6.375,10.3125,0.6237605922076821,0.10498363792193621,0.7616197612849805,-0.14084210520155835,-155.35792103516445,78.4381788826249,-175.48190317118363,0.48529052734375,-0.54962158203125,0.53729248046875,0.41680908203125,-154.76589539793284,78.42429852947654,-68.00064277185777,54.062600358963955,,,,3,0,2,1
1788935692.72178,954188982.0,-9.63671875,-0.93359375,-1.7578125,-0.0234375,-0.037109375,0.005859375,33.125,7.0625,9.4375,33.125,7.0625,9.4375,0.6239938842749557,0.10474415226339397,0.7614218443537162,-0.14105697393273897,-155.13816094453065,78.46276527968115,-175.25966574481467,0.48529052734375,-0.549560546875,0.53717041015625,0.41693115234375,-154.74047369503995,78.41425517620064,-67.95098208695033,54.06987899523591,,,,3,0,2,1
1788935692.7310798,954192765.0,-9.671875,-0.89453125,-1.7578125,-0.025390625,-0.037109375,0.01171875,33.125,7.0625,9.4375,33.125,7.0625,9.4375,0.6241009048001823,0.10464743770084174,0.7613320566024506,-0.14113990930890186,-155.04846766022746,78.47450957867387,-175.16862236872277,0.48529052734375,-0.549560546875,0.537109375,0.4171142578125,-154.7622059326945,78.45484075428654,-67.97092446451634,54.04933027517047,,,,3,0,2,1
1788935692.735445,954196018.0,-9.671875,-0.89453125,-1.7578125,-0.025390625,-0.037109375,0.01171875,32.8125,5.875,9.1875,32.8125,5.875,9.1875,0.624187860715554,0.10455650582816926,0.761259274148249,-0.1412153290107885,-154.96769576547072,78.48358843577847,-175.08640496508664,0.48529052734375,-0.549560546875,0.537109375,0.4171142578125,-154.7622059326945,78.45484075428654,-67.97092446451634,54.05251505576863,,,,3,0,2,1
1788935692.7376275,954200225.0,-9.671875,-0.85546875,-1.796875,-0.01953125,-0.04296875,0.017578125,32.8125,5.875,9.1875,32.8125,5.875,9.1875,0.6243065069033018,0.1044538677638481,0.7611567370622726,-0.14131948404973985,-154.86388706575596,78.49661973120287,-174.98248875891002,0.48529052734375,-0.549560546875,0.537109375,0.4171142578125,-154.7622059326945,78.45484075428654,-67.97092446451634,54.05486641650247,,,,3,0,2,1
1788935692.7441049,954204207.0,-9.59765625,-0.89453125,-1.7578125,-0.013671875,-0.041015625,0.021484375,32.8125,5.875,9.1875,32.8125,5.875,9.1875,0.6244152097552406,0.10436841893038527,0.7610603482419138,-0.14142144565159634,-154.7684912420421,78.50876133440948,-174.88824186222848,0.4853515625,-0.54949951171875,0.5369873046875,0.4173583984375,-154.75329848602536,78.50201833103092,-67.95706814357564,54.033820034964805,,,,3,0,2,1
1788935692.748479,954211490.0,-9.55859375,-0.89453125,-1.796875,-0.01953125,-0.04296875,0.02734375,33.0,5.0,9.3125,33.0,5.0,9.3125,0.624561823595637,0.10417963461988795,0.7609307273283802,-0.14161059439484508,-154.5915171342576,78.52236313571694,-174.7110552498487,0.4853515625,-0.54949951171875,0.5369873046875,0.4173583984375,-154.75329848602536,78.50201833103092,-67.95706814357564,54.03783679301923,,,,3,0,2,1
1788935692.7554965,954215350.0,-9.51953125,-0.93359375,-1.796875,-0.01953125,-0.046875,0.02734375,31.1875,4.5625,14.125,31.1875,4.5625,14.125,0.6246029693041557,0.10423672524825084,0.7609269061927272,-0.1414074937120272,-154.69455168007892,78.53148658167935,-174.80185119110817,0.4853515625,-0.54937744140625,0.53692626953125,0.41754150390625,-154.77302934680213,78.5135349696407,-67.96305455800808,54.04661006263552,,,,3,0,2,1
1788935692.7595062,954219556.0,-9.4765625,-0.89453125,-1.796875,-0.013671875,-0.044921875,0.029296875,31.1875,4.5625,14.125,31.1875,4.5625,14.125,0.6246466932585978,0.10431792940495521,0.7609198600209633,-0.14119222652624988,-154.81085260302248,78.54180519110932,-174.9068808824339,0.4853515625,-0.54937744140625,0.53692626953125,0.41754150390625,-154.77302934680213,78.5135349696407,-67.96305455800808,54.055443353778216,,,,3,0,2,1
1788935692.765573,954227645.0,-9.3984375,-0.93359375,-1.87109375,-0.01171875,-0.048828125,0.044921875,30.5625,6.3125,14.125,30.5625,6.3125,14.125,0.6246616356688779,0.10422418531804366,0.7608923748092171,-0.14134339063239607,-154.70803413380182,78.53991332210026,-174.80884492448217,0.4853515625,-0.54925537109375,0.536865234375,0.41778564453125,-154.8099488590799,78.54436346323664,-67.98996396327242,54.04241216061983,,,,3,0,2,1
1788935692.7675261,954231521.0,-9.3984375,-0.93359375,-1.87109375,-0.01171875,-0.048828125,0.044921875,30.5625,6.3125,14.125,30.5625,6.3125,14.125,0.6246671520077874,0.10418046304760363,0.7608807576851904,-0.14141376491019927,-154.66042871255232,78.5388130955419,-174.76346331785967,0.4853515625,-0.54925537109375,0.536865234375,0.41778564453125,-154.8099488590799,78.54436346323664,-67.98996396327242,54.041195655033874,,,,3,0,2,1
1788935692.7752876,954235657.0,-9.44140625,-0.96875,-1.87109375,-0.001953125,-0.05859375,0.044921875,31.125,5.9375,13.4375,31.125,5.9375,13.4375,0.6246848601860322,0.10413809100013727,0.7608563016578094,-0.14149830983020614,-154.60450247065435,78.53939491295458,-174.7110146364038,0.4853515625,-0.549072265625,0.536865234375,0.41802978515625,-154.8755427379128,78.57761688160267,-68.05238956209548,54.036280517429155,,,,3,0,2,1
1788935692.7772915,954239287.0,-9.44140625,-0.89453125,-1.87109375,-0.013671875,-0.0625,0.046875,31.125,5.9375,13.4375,31.125,5.9375,13.4375,0.6246963034700006,0.10410724481437891,0.760843664568342,-0.14153843327623733,-154.57376493038154,78.53975526107436,-174.68103796412876,0.4853515625,-0.549072265625,0.536865234375,0.41802978515625,-154.8755427379128,78.57761688160267,-68.05238956209548,54.036173355475555,,,,3,0,2,1
1788935692.7850485,954247023.0,-9.4375,-0.89453125,-1.796875,-0.017578125,-0.068359375,0.05859375,30.4375,5.4375,14.4375,30.4375,5.4375,14.4375,0.6247697818316188,0.10422514213897766,0.7608302244508195,-0.1411991820737535,-154.75282717652445,78.55639871251911,-174.8414977230223,0.48541259765625,-0.54888916015625,0.53680419921875,0.41827392578125,-154.89439732870355,78.61273673536424,-68.0671853738991,54.04809176149865,,,,3,0,2,1
1788935692.7870536,954250753.0,-9.4375,-0.85546875,-1.7578125,-0.029296875,-0.07421875,0.0625,30.4375,5.4375,14.4375,30.4375,5.4375,14.4375,0.624844206211623,0.10429894110065029,0.7608014088370085,-0.1409704407337689,-154.86713819380577,78.5709521395167,-174.94273690811895,0.48541259765625,-0.54888916015625,0.53680419921875,0.41827392578125,-154.89439732870355,78.61273673536424,-68.0671853738991,54.05877965613019,,,,3,0,2,1
1788935692.7950716,954254789.0,-9.51953125,-0.85546875,-1.7578125,-0.03515625,-0.0703125,0.05859375,31.1875,6.125,14.8125,31.1875,6.125,14.8125,0.6249257718804924,0.10421760049869454,0.7607367875405338,-0.14101777004468,-154.8025341715549,78.5797094938735,-174.87516515457645,0.4853515625,-0.54864501953125,0.5367431640625,0.418701171875,-154.9996952937981,78.65337824065064,-68.14966785358921,54.05162686427385,,,,3,0,2,1
1788935692.7980797,954258518.0,-9.4765625,-0.81640625,-1.71875,-0.044921875,-0.076171875,0.0546875,31.1875,6.125,14.8125,31.1875,6.125,14.8125,0.6251108716912566,0.10416663389655105,0.7605899393194124,-0.1410271416506476,-154.7452798488873,78.60450859325327,-174.81403271691457,0.4853515625,-0.54864501953125,0.5367431640625,0.418701171875,-154.9996952937981,78.65337824065064,-68.14966785358921,54.05671824567651,,,,3,0,2,1
1788935692.799282,954262848.0,-9.51953125,-0.77734375,-1.6796875,-0.044921875,-0.076171875,0.0546875,31.1875,6.125,14.8125,31.1875,6.125,14.8125,0.6253812898514072,0.10420200875139725,0.760387244926128,-0.14089507241070182,-154.7649386868568,78.64526167611461,-174.82497751522442,0.4853515625,-0.54864501953125,0.5367431640625,0.418701171875,-154.9996952937981,78.65337824065064,-68.14966785358921,54.06506316239378,,,,3,0,2,1
1788935692.8012352,954266831.0,-9.51953125,-0.77734375,-1.60546875,-0.056640625,-0.0703125,0.05078125,31.25,5.3125,14.6875,31.25,5.3125,14.6875,0.6255937831417182,0.1042634240823798,0.7602559848235688,-0.14061434646932716,-154.8728955937521,78.67956250950782,-174.91419787339996,0.48529052734375,-0.5484619140625,0.53662109375,0.41912841796875,-155.07700094990307,78.69168621158893,-68.19734180770126,54.06223270525532,,,,3,0,2,1
1788935692.8076546,954270337.0,-9.55859375,-0.7421875,-1.640625,-0.052734375,-0.064453125,0.0390625,31.25,5.3125,14.6875,31.25,5.3125,14.6875,0.6257521859100657,0.10432035643439452,0.7601627036078411,-0.14037139703583876,-154.9730100824943,78.70569650375963,-174.9984745882939,0.48529052734375,-0.5484619140625,0.53662109375,0.41912841796875,-155.07700094990307,78.69168621158893,-68.19734180770126,54.076041898060296,,,,3,0,2,1
1788935692.8170717,954278226.0,-9.55859375,-0.703125,-1.56640625,-0.048828125,-0.041015625,0.02734375,33.5625,5.1875,10.0,33.5625,5.1875,10.0,0.6260876471906662,0.10418987863763175,0.7599139177574055,-0.1403195097743808,-154.88699865245547,78.74997023673522,-174.89661404248582,0.48529052734375,-0.54840087890625,0.5364990234375,0.41949462890625,-155.1211455404737,78.75968231734336,-68.23284923996326,54.05714811267578,,,,3,0,2,1
1788935692.8151186,954282179.0,-9.59765625,-0.6640625,-1.48828125,-0.048828125,-0.041015625,0.02734375,33.5625,5.1875,10.0,33.5625,5.1875,10.0,0.6262639096682645,0.10413972112411207,0.759784456448907,-0.140271214687301,-154.85752508579242,78.7739603157102,-174.8585844732227,0.48529052734375,-0.54840087890625,0.5364990234375,0.41949462890625,-155.1211455404737,78.75968231734336,-68.23284923996326,54.0663577138981,,,,3,0,2,1
1788935692.8131366,954285962.0,-9.59765625,-0.6640625,-1.52734375,-0.05859375,-0.03515625,0.01953125,34.8125,5.125,9.5,34.8125,5.125,9.5,0.626421979397786,0.10406493148553607,0.7596729560300035,-0.14022479680465536,-154.82212826448713,78.79454000872694,-174.81281075651427,0.48516845703125,-0.54840087890625,0.53631591796875,0.4197998046875,-155.15461239324256,78.76734555186628,-68.22242671759847,54.049731313101326,,,,3,0,2,1
1788935692.8170717,954290268.0,-9.5546875,-0.5859375,-1.52734375,-0.048828125,-0.0234375,0.009765625,34.8125,5.125,9.5,34.8125,5.125,9.5,0.6265850106807919,0.10400399697388583,0.7595565789081531,-0.14017202445905738,-154.79331611595492,78.81631852407868,-174.77422229425287,0.48516845703125,-0.54840087890625,0.53631591796875,0.4197998046875,-155.15461239324256,78.76734555186628,-68.22242671759847,54.060143527470544,,,,3,0,2,1
1788935692.8355763,954297957.0,-9.5546875,-0.5859375,-1.48828125,-0.041015625,-0.005859375,-0.0078125,33.3125,2.8125,9.3125,33.3125,2.8125,9.3125,0.6267534283929217,0.10407959386414191,0.7594732576664608,-0.13981398008885876,-154.95212777061,78.84532473363791,-174.90918558035582,0.485107421875,-0.5484619140625,0.53619384765625,0.41998291015625,-155.1659264935256,78.78742192664187,-68.2136365538582,54.05282685673402,,,,3,0,2,1
1788935692.8375294,954301910.0,-9.5546875,-0.5859375,-1.52734375,-0.041015625,-0.005859375,-0.0078125,33.3125,2.8125,9.3125,33.3125,2.8125,9.3125,0.6268324675968555,0.10412299088001165,0.7594371804685917,-0.1396231687742188,-155.0402416104428,78.85932041791783,-174.98487346863766,0.485107421875,-0.5484619140625,0.53619384765625,0.41998291015625,-155.1659264935256,78.78742192664187,-68.2136365538582,54.06351252164183,,,,3,0,2,1
1788935692.8375294,954307323.0,-9.55859375,-0.5859375,-1.56640625,-0.0234375,0.0078125,-0.0234375,34.5,5.375,10.75,34.5,5.375,10.75,0.6269550462788424,0.10405136657455381,0.7593414461297486,-0.13964688055608143,-154.98026536376835,78.87447545432894,-174.92067704754388,0.4849853515625,-0.54864501953125,0.53607177734375,0.4200439453125,-155.16165095912527,78.7790168128744,-68.1816797331595,54.04051424609334,,,,3,0,2,1
1788935692.8456461,954310376.0,-9.55859375,-0.55078125,-1.640625,-0.0234375,0.0078125,-0.0234375,34.5,5.375,10.75,34.5,5.375,10.75,0.6270247013538568,0.10403580092869708,0.7592872145469078,-0.13964061673749958,-154.9640357575972,78.8840181992089,-174.9024797197151,0.4849853515625,-0.54864501953125,0.53607177734375,0.4200439453125,-155.16165095912527,78.7790168128744,-68.1816797331595,54.042844937863734,,,,3,0,2,1
1788935692.8506591,954313859.0,-9.5546875,-0.51171875,-1.6796875,-0.017578125,0.015625,-0.02734375,34.5,5.375,10.75,34.5,5.375,10.75,0.6270865879032395,0.10405619873332918,0.7592390945554086,-0.1396091546988453,-154.97357005424163,78.89376339746015,-174.91093284956398,0.48492431640625,-0.54876708984375,0.5360107421875,0.41998291015625,-155.13373511554482,78.7528208924869,-68.1370498574807,54.03764030728636,,,,3,0,2,1
1788935692.859905,954321842.0,-9.55859375,-0.51171875,-1.7578125,-0.01171875,0.017578125,-0.037109375,30.0,4.5,12.75,30.0,4.5,12.75,0.6270127209512225,0.10414408805156886,0.7593375218376616,-0.1393398170613499,-155.1440950137636,78.88772856817009,-175.0665628170716,0.48492431640625,-0.54876708984375,0.5360107421875,0.41998291015625,-155.13373511554482,78.7528208924869,-68.1370498574807,54.0490725848027,,,,3,0,2,1
1788935692.8645344,954325301.0,-9.55859375,-0.55078125,-1.796875,-0.013671875,0.0078125,-0.04296875,30.625,5.125,13.6875,30.625,5.125,13.6875,0.6269777159067048,0.10416756467455322,0.7593823280499247,-0.1392355632432333,-155.20761969908637,78.88411611119773,-175.12347244298894,0.48492431640625,-0.5489501953125,0.535888671875,0.41986083984375,-155.04164991502165,78.72389028979325,-68.02972786342964,54.045899223286234,,,,3,0,2,1
1788935692.8575683,954329607.0,-9.55859375,-0.51171875,-1.8359375,-0.001953125,0.001953125,-0.0546875,30.625,5.125,13.6875,30.625,5.125,13.6875,0.6269294965472156,0.1041898140536665,0.7594353097266956,-0.13914704217781654,-155.26591239401017,78.87845539278838,-175.17638408991536,0.48492431640625,-0.5489501953125,0.535888671875,0.41986083984375,-155.04164991502165,78.72389028979325,-68.02972786342964,54.05008455700874,,,,3,0,2,1
1788935692.8625813,954333190.0,-9.515625,-0.55078125,-1.8359375,0.0078125,-0.00390625,-0.0546875,30.625,5.125,13.6875,30.625,5.125,13.6875,0.6268885319512035,0.10421323121041218,0.7594760554329255,-0.13909166823643251,-155.30774174194823,78.87365676130737,-175.21565402816188,0.48504638671875,-0.54913330078125,0.5357666015625,0.41973876953125,-154.91431789157724,78.73330135264392,-67.9115205756015,54.03580032119771,,,,3,0,2,1
1788935692.8645344,954338473.0,-9.515625,-0.5859375,-1.87109375,0.017578125,-0.015625,-0.0625,31.9375,4.625,15.4375,31.9375,4.625,15.4375,0.6268539359008907,0.10422673092708966,0.7595142251003539,-0.13902903824749405,-155.34822792955367,78.86950191415278,-175.25215033045626,0.48504638671875,-0.54913330078125,0.5357666015625,0.41973876953125,-154.91431789157724,78.73330135264392,-67.9115205756015,54.038961555991584,,,,3,0,2,1
1788935692.8781695,954343156.0,-9.515625,-0.625,-1.91015625,0.0234375,-0.017578125,-0.0625,31.9375,4.625,15.4375,31.9375,4.625,15.4375,0.626813471214329,0.10423921566115178,0.759552625113235,-0.13899233038619477,-155.37740997450283,78.86430640798487,-175.27941903178436,0.4852294921875,-0.54925537109375,0.53558349609375,0.4195556640625,-154.72151474960296,78.70981765025122,-67.71670342491105,54.044458215371975,,,,3,0,2,1
1788935692.8804264,954347562.0,-9.515625,-0.703125,-1.87109375,0.03125,-0.025390625,-0.0546875,31.0625,4.1875,13.5625,31.0625,4.1875,13.5625,0.6267842563708292,0.1042705460435222,0.7595771471651873,-0.1389665668347881,-155.40589237698302,78.86125006714471,-175.30841384839104,0.4852294921875,-0.54925537109375,0.53558349609375,0.4195556640625,-154.72151474960296,78.70981765025122,-67.71670342491105,54.043363709750466,,,,3,0,2,1
1788935692.8804264,954348415.0,-9.48046875,-0.77734375,-1.87109375,0.03125,-0.025390625,-0.0546875,31.0625,4.1875,13.5625,31.0625,4.1875,13.5625,0.6267762191550192,0.10427403843971297,0.759583862158591,-0.13896349289454132,-155.41007480921715,78.86022316572814,-175.31264843810274,0.4852294921875,-0.54925537109375,0.53558349609375,0.4195556640625,-154.72151474960296,78.70981765025122,-67.71670342491105,54.043222728868734,,,,3,0,2,1
1788935692.893862,954357075.0,-9.48046875,-0.89453125,-1.8359375,0.03515625,-0.03515625,-0.052734375,31.0625,4.1875,13.5625,31.0625,4.1875,13.5625,0.6267009062004675,0.10427403907605678,0.7596455151899402,-0.13896614765506218,-155.4232359035436,78.84937937757455,-175.326214648909,0.4854736328125,-0.54925537109375,0.53546142578125,0.41937255859375,-154.53890407361,78.69281178195645,-67.5448934088218,54.06199034499407,,,,3,0,2,1
1788935692.899791,954361157.0,-9.48046875,-0.89453125,-1.8359375,0.033203125,-0.041015625,-0.05078125,30.75,4.625,14.0625,30.75,4.625,14.0625,0.6266641323427152,0.10425782237852407,0.7596754261232275,-0.13898064128695212,-155.41788944463684,78.84349487622893,-175.32082657689068,0.4854736328125,-0.54925537109375,0.53546142578125,0.41937255859375,-154.53890407361,78.69281178195645,-67.5448934088218,54.062102117011825,,,,3,0,2,1
1788935692.907443,954368470.0,-9.4765625,-0.96875,-1.6796875,0.03125,-0.0546875,-0.037109375,31.625,3.625,14.0,31.625,3.625,14.0,0.6267788711149391,0.10431145060071403,0.7595993810578466,-0.13883856918736065,-155.48064436603286,78.86254203934047,-175.37594498701299,0.48577880859375,-0.54925537109375,0.5352783203125,0.4193115234375,-154.34306973688885,78.7167623508654,-67.36660439647615,54.0695632150907,,,,3,0,2,1
1788935692.90549,954372900.0,-9.4765625,-1.0078125,-1.6796875,0.03125,-0.0546875,-0.037109375,31.625,3.625,14.0,31.625,3.625,14.0,0.6268420175857164,0.10433255970831448,0.7595602176524575,-0.1387518566849854,-155.51629459704594,78.87281003923007,-175.40599731801493,0.48577880859375,-0.54925537109375,0.5352783203125,0.4193115234375,-154.34306973688885,78.7167623508654,-67.36660439647615,54.074535809019594,,,,3,0,2,1
1788935692.911986,954376782.0,-9.48046875,-1.046875,-1.640625,0.025390625,-0.05078125,-0.025390625,33.6875,5.1875,10.25,33.6875,5.1875,10.25,0.6269174459688024,0.10420450110330247,0.7594741492827582,-0.13897825175543196,-155.35187905244416,78.8782489528377,-175.2496168086493,0.486083984375,-0.5491943359375,0.53515625,0.41925048828125,-154.17573828212556,78.74309193541589,-67.223536478804,54.07844305053903,,,,3,0,2,1
1788935692.911986,954380689.0,-9.515625,-1.046875,-1.60546875,0.01953125,-0.052734375,-0.021484375,33.6875,5.1875,10.25,33.6875,5.1875,10.25,0.6270082894784579,0.1040775850577007,0.7593780764196253,-0.1391883553573541,-155.19227645460626,78.88596451189514,-175.0967583107407,0.486083984375,-0.5491943359375,0.53515625,0.41925048828125,-154.17573828212556,78.74309193541589,-67.223536478804,54.07485439039583,,,,3,0,2,1
1788935692.911986,954383895.0,-9.515625,-1.046875,-1.60546875,0.009765625,-0.05078125,-0.01953125,33.6875,5.1875,10.25,33.6875,5.1875,10.25,0.6270820040405671,0.10396616634507273,0.7593034058442871,-0.13934681315782088,-155.06526307006024,78.89198139702681,-174.9735302349213,0.48626708984375,-0.549072265625,0.53497314453125,0.4193115234375,-154.0461444306528,78.73797810027209,-67.08320604055976,54.08615810012232,,,,3,0,2,1
1788935692.9300504,954392554.0,-9.5546875,-1.0078125,-1.48828125,-0.00390625,-0.046875,-0.013671875,33.6875,3.9375,9.875,33.6875,3.9375,9.875,0.6273942975920042,0.10371678238739027,0.7590352599119943,-0.139587601922856,-154.8040678997904,78.9271976326962,-174.7110246240531,0.48626708984375,-0.549072265625,0.53497314453125,0.4193115234375,-154.0461444306528,78.73797810027209,-67.08320604055976,54.09278519724839,,,,3,0,2,1
1788935692.9300504,954396214.0,-9.55859375,-1.046875,-1.48828125,-0.017578125,-0.04296875,-0.013671875,33.75,6.25,8.8125,33.75,6.25,8.8125,0.6275012366816844,0.10358914965593988,0.7589430893329036,-0.1397028030869259,-154.68418860839705,78.93761474436141,-174.58994073205656,0.48638916015625,-0.54901123046875,0.53485107421875,0.41937255859375,-153.96567801270896,78.74610577736284,-66.99883175319665,54.097942439212396,,,,3,0,2,1
1788935692.9300504,954399243.0,-9.5546875,-1.0078125,-1.48828125,-0.01953125,-0.029296875,0.00390625,33.75,6.25,8.8125,33.75,6.25,8.8125,0.6275796106629309,0.10350642115060174,0.7588761616223937,-0.13977562155834283,-154.60538426328546,78.9456553197141,-174.5101807309073,0.48638916015625,-0.54901123046875,0.53485107421875,0.41937255859375,-153.96567801270896,78.74610577736284,-66.99883175319665,54.10048944368813,,,,3,0,2,1
1788935692.9418259,954407579.0,-9.59375,-1.0078125,-1.44921875,-0.03515625,-0.017578125,0.005859375,34.5625,4.25,9.5,34.5625,4.25,9.5,0.6278007745636183,0.10326026948255247,0.7587098021259169,-0.139867581525398,-154.43108702292736,78.96867931007579,-174.32274928494155,0.48638916015625,-0.54901123046875,0.53472900390625,0.4195556640625,-153.95664493363807,78.77029567327473,-66.9754004275552,54.096628331332404,,,,3,0,2,1
1788935692.9438224,954411885.0,-9.59765625,-0.93359375,-1.48828125,-0.037109375,-0.00390625,0.001953125,34.5625,4.25,9.5,34.5625,4.25,9.5,0.6279010279202915,0.10313955521474173,0.7586370002152836,-0.13990151246895993,-154.3522634404508,78.9788446541625,-174.23658133693795,0.48638916015625,-0.54901123046875,0.53472900390625,0.4195556640625,-153.95664493363807,78.77029567327473,-66.9754004275552,54.10558096279123,,,,3,0,2,1
1788935692.9418693,954415345.0,-9.59765625,-0.89453125,-1.48828125,-0.03125,0.001953125,0.015625,30.5,4.375,13.1875,30.5,4.375,13.1875,0.6279926091493574,0.10316345250893198,0.758588453585177,-0.139735976067259,-154.41926174179534,78.99399380037927,-174.29161801253906,0.486328125,-0.549072265625,0.53466796875,0.419677734375,-153.98012773574982,78.78814641811059,-66.98758208482752,54.09395781878072,,,,3,0,2,1
1788935692.959901,954419451.0,-9.59375,-0.81640625,-1.52734375,-0.029296875,0.0078125,0.009765625,30.5,4.375,13.1875,30.5,4.375,13.1875,0.6280666923171012,0.10321861306585575,0.7585597730460184,-0.1395178075909667,-154.52573087412705,79.00803260908926,-174.38437916358797,0.486328125,-0.549072265625,0.53466796875,0.419677734375,-153.98012773574982,78.78814641811059,-66.98758208482752,54.10567552400408,,,,3,0,2,1
1788935692.9615562,954423234.0,-9.55859375,-0.85546875,-1.52734375,-0.0390625,0.01953125,0.009765625,30.5,4.375,13.1875,30.5,4.375,13.1875,0.6281245119650597,0.10325004917186749,0.7585473946705522,-0.13930138137570644,-154.62661348519072,79.01893051164905,-174.46979094806645,0.48614501953125,-0.5491943359375,0.53466796875,0.41973876953125,-154.05383449841693,78.78039895013596,-67.04124053992012,54.098834610484914,,,,3,0,2,1
1788935692.9675024,954428117.0,-9.5546875,-0.81640625,-1.56640625,-0.044921875,0.025390625,0.0078125,31.4375,4.125,13.6875,31.4375,4.125,13.6875,0.6281431346716226,0.10330604032756728,0.758582372656568,-0.13898506499433053,-154.79131360396337,79.02568206086593,-174.61286535261442,0.48614501953125,-0.5491943359375,0.53466796875,0.41973876953125,-154.05383449841693,78.78039895013596,-67.04124053992012,54.11731227850719,,,,3,0,2,1
1788935692.9694846,954432470.0,-9.5546875,-0.81640625,-1.56640625,-0.044921875,0.025390625,0.0078125,31.4375,4.125,13.6875,31.4375,4.125,13.6875,0.6281610128173216,0.10335486084921203,0.7586125302808207,-0.1387030771687764,-154.9376405985407,79.03179131078403,-174.73982252592165,0.48614501953125,-0.5491943359375,0.53466796875,0.41973876953125,-154.05383449841693,78.78039895013596,-67.04124053992012,54.13390467889488,,,,3,0,2,1
1788935692.97378,954438329.0,-9.55859375,-0.77734375,-1.60546875,-0.041015625,0.02734375,0.015625,31.5625,6.625,14.0625,31.5625,6.625,14.0625,0.6281909231153836,0.10323392046382819,0.758589943909283,-0.13878119029904942,-154.85214310979745,79.03166537226834,-174.65078826474252,0.4859619140625,-0.54931640625,0.53466796875,0.4197998046875,-154.1274389835458,78.77266552990353,-67.09481607128751,54.11864570628749,,,,3,0,2,1
1788935692.977715,954438506.0,-9.55859375,-0.77734375,-1.56640625,-0.02734375,0.03515625,0.01953125,31.5625,6.625,14.0625,31.5625,6.625,14.0625,0.628191698991734,0.10323164664354469,0.7585891691666473,-0.13878360447904733,-154.85004723546362,79.03168677776436,-174.64870362986477,0.4859619140625,-0.54931640625,0.53466796875,0.4197998046875,-154.1274389835458,78.77266552990353,-67.09481607128751,54.11867523972251,,,,3,0,2,1
1788935692.9741106,954442735.0,-9.51953125,-0.7421875,-1.56640625,-0.02734375,0.03515625,0.01953125,31.5625,6.625,14.0625,31.5625,6.625,14.0625,0.6282152428545587,0.10318613338855162,0.7585663339418486,-0.13883568536774613,-154.8046956904187,79.03323605379337,-174.6038688200159,0.4859619140625,-0.54931640625,0.53466796875,0.4197998046875,-154.1274389835458,78.77266552990353,-67.09481607128751,54.11904968984926,,,,3,0,2,1
1788935692.9831383,954446718.0,-9.51953125,-0.77734375,-1.60546875,-0.025390625,0.037109375,0.009765625,30.9375,5.875,13.9375,30.9375,5.875,13.9375,0.6282479238760798,0.10313893287033758,0.7585390671805226,-0.13887184823666096,-154.76436800305865,79.03615009497763,-174.56258026701732,0.48577880859375,-0.54937744140625,0.53472900390625,0.41986083984375,-154.22974428625457,78.76731267963692,-67.1838842508803,54.10814884414643,,,,3,0,2,1
1788935692.9831383,954450825.0,-9.51953125,-0.77734375,-1.60546875,-0.033203125,0.041015625,0.01171875,30.9375,5.875,13.9375,30.9375,5.875,13.9375,0.6282783355037727,0.10308535366997641,0.758517367596551,-0.1388925701747344,-154.72950458805462,79.03863905963378,-174.52496015546689,0.48577880859375,-0.54937744140625,0.53472900390625,0.41986083984375,-154.22974428625457,78.76731267963692,-67.1838842508803,54.111604800948065,,,,3,0,2,1
1788935692.9915876,954454207.0,-9.48046875,-0.77734375,-1.52734375,-0.029296875,0.04296875,0.01171875,30.9375,5.875,13.9375,30.9375,5.875,13.9375,0.6283104160175015,0.10305458552991459,0.7584954117040043,-0.13889018665530198,-154.7132126871445,79.04226723540552,-174.50586820011722,0.48553466796875,-0.54949951171875,0.5347900390625,0.41986083984375,-154.33378601649872,78.7381354821247,-67.26504189776799,54.103753544228866,,,,3,0,2,1
1788935692.9915876,954458514.0,-9.4765625,-0.7421875,-1.56640625,-0.03515625,0.0546875,0.01171875,30.9375,5.875,13.9375,30.9375,5.875,13.9375,0.6283396420887711,0.10303382488154884,0.7584800041345655,-0.13885751127707413,-154.71529982739972,79.04602753294571,-174.5034770454139,0.48553466796875,-0.54949951171875,0.5347900390625,0.41986083984375,-154.33378601649872,78.7381354821247,-67.26504189776799,54.108220075633,,,,3,0,2,1
1788935692.9991648,954462467.0,-9.4765625,-0.7421875,-1.60546875,-0.03515625,0.0546875,0.01171875,30.9375,5.875,13.9375,30.9375,5.875,13.9375,0.6283621053644183,0.10301636464466149,0.7584667148282008,-0.13884140468574388,-154.71212700950463,79.0488041493922,-174.49748421495866,0.48553466796875,-0.54949951171875,0.5347900390625,0.41986083984375,-154.33378601649872,78.7381354821247,-67.26504189776799,54.111123996418726,,,,3,0,2,1
1788935693.0054731,954467679.0,-9.51953125,-0.7421875,-1.56640625,-0.0234375,0.060546875,-0.00390625,30.0,5.6875,13.1875,30.0,5.6875,13.1875,0.6283682880668362,0.10296702228054079,0.7584621102168884,-0.13887517503130997,-154.67752773784915,79.04785261289246,-174.46161415926994,0.48529052734375,-0.5496826171875,0.534912109375,0.4197998046875,-154.45167278337235,78.72172044636379,-67.37514312075217,54.09654110908923,,,,3,0,2,1
1788935693.0074263,954470732.0,-9.51953125,-0.703125,-1.60546875,-0.0234375,0.060546875,-0.00390625,30.0,5.6875,13.1875,30.0,5.6875,13.1875,0.62837733506584,0.10296621621551745,0.7584547685253443,-0.13887493364527176,-154.67549910161082,79.04912632759266,-174.45947768141883,0.48529052734375,-0.5496826171875,0.534912109375,0.4197998046875,-154.45167278337235,78.72172044636379,-67.37514312075217,54.09669930649549,,,,3,0,2,1
1788935693.0115354,954474715.0,-9.51953125,-0.703125,-1.640625,-0.021484375,0.064453125,-0.001953125,30.0,5.6875,13.1875,30.0,5.6875,13.1875,0.6283779569734758,0.10298936515056377,0.7584491826552584,-0.13888546066919627,-154.6785790285865,79.04988678733565,-174.46532748796534,0.48504638671875,-0.54986572265625,0.53497314453125,0.41973876953125,-154.53906920500168,78.68797283127897,-67.44196711198042,54.080808302891086,,,,3,0,2,1
1788935693.0115354,954481998.0,-9.48046875,-0.6640625,-1.7578125,-0.015625,0.072265625,-0.0078125,33.875,4.625,10.625,33.875,4.625,10.625,0.62805725977451,0.10313213304020813,0.7587396738065213,-0.13864324351039925,-154.90816281856476,79.0101793527043,-174.68735870810954,0.48504638671875,-0.54986572265625,0.53497314453125,0.41973876953125,-154.53906920500168,78.68797283127897,-67.44196711198042,54.08348371072709,,,,3,0,2,1
1788935693.0231657,954486057.0,-9.515625,-0.703125,-1.7578125,-0.0078125,0.068359375,-0.0078125,32.875,5.0625,9.0,32.875,5.0625,9.0,0.6279626294488249,0.10303444720356073,0.7588041865151691,-0.13879137304683953,-154.82335570791093,78.99241927981889,-174.60701796415617,0.48486328125,-0.550048828125,0.53509521484375,0.4195556640625,-154.60387247850912,78.65144297967615,-67.50345421880809,54.0785995441682,,,,3,0,2,1
1788935693.0231657,954490064.0,-9.55859375,-0.703125,-1.796875,-0.009765625,0.064453125,-0.01171875,32.875,5.0625,9.0,32.875,5.0625,9.0,0.6278543909834463,0.10292554497381592,0.7588799315011034,-0.13894763574645433,-154.7338295960189,78.97226877889813,-174.52174432708605,0.48486328125,-0.550048828125,0.53509521484375,0.4195556640625,-154.60387247850912,78.65144297967615,-67.50345421880809,54.07597796952506,,,,3,0,2,1
1788935693.0371459,954498353.0,-9.48046875,-0.7421875,-1.7578125,0.009765625,0.068359375,-0.01171875,33.8125,4.8125,9.5,33.8125,4.8125,9.5,0.6275300408687803,0.10274988394241608,0.7591030963870964,-0.13932335845998622,-154.56293218835856,78.91734837715913,-174.36830688563126,0.48468017578125,-0.55023193359375,0.53521728515625,0.41937255859375,-154.66829806909894,78.61496392918534,-67.56459664090056,54.05960430830564,,,,3,0,2,1
1788935693.039099,954501929.0,-9.4765625,-0.7421875,-1.796875,0.009765625,0.068359375,-0.01171875,33.8125,4.8125,9.5,33.8125,4.8125,9.5,0.6273548353312389,0.10269187258723485,0.7592308727462305,-0.13945885328669022,-154.51542703962534,78.88936140538001,-174.32767978969923,0.48468017578125,-0.55023193359375,0.53521728515625,0.41937255859375,-154.66829806909894,78.61496392918534,-67.56459664090056,54.053508299501836,,,,3,0,2,1
1788935693.039099,954505389.0,-9.48046875,-0.77734375,-1.7578125,0.015625,0.0625,-0.01171875,33.6875,3.9375,9.875,33.6875,3.9375,9.875,0.6272100687453805,0.10277435605364531,0.7593532195946784,-0.13938310261064393,-154.6086639103349,78.87185884681426,-174.42177062213688,0.484619140625,-0.55035400390625,0.53533935546875,0.419189453125,-154.69605813947246,78.60156832733585,-67.60691485001895,54.052414510092575,,,,3,0,2,1
1788935693.039099,954509595.0,-9.44140625,-0.7421875,-1.8359375,0.017578125,0.06640625,-0.017578125,33.6875,3.9375,9.875,33.6875,3.9375,9.875,0.6270116750088013,0.10285653277912496,0.7595171801986662,-0.13932173574278017,-154.70559227246486,78.84653301019188,-174.52085022296183,0.484619140625,-0.55035400390625,0.53533935546875,0.419189453125,-154.69605813947246,78.60156832733585,-67.60691485001895,54.048110341980575,,,,3,0,2,1
1788935693.0549073,954517731.0,-9.40234375,-0.7421875,-1.796875,0.015625,0.05859375,-0.01953125,30.6875,4.6875,13.75,30.6875,4.6875,13.75,0.62671895016963,0.10302290711463191,0.759775766643982,-0.13910579617138902,-154.92133069716803,78.81143733671183,-174.73309164254914,0.4844970703125,-0.55047607421875,0.53546142578125,0.4189453125,-154.7241444069752,78.54983062798127,-67.63388295696365,54.06160291163931,,,,3,0,2,1
1788935693.0549073,954521060.0,-9.3984375,-0.77734375,-1.8359375,0.015625,0.0546875,-0.029296875,30.6875,4.6875,13.75,30.6875,4.6875,13.75,0.6265890574447983,0.10306680248743698,0.7598887350687492,-0.13904135223404238,-154.9918055740243,78.79465392082358,-174.80215549629793,0.4844970703125,-0.55047607421875,0.53546142578125,0.4189453125,-154.7241444069752,78.54983062798127,-67.63388295696365,54.061458712238085,,,,3,0,2,1
1788935693.0549073,954525496.0,-9.40234375,-0.81640625,-1.8359375,0.021484375,0.052734375,-0.037109375,31.125,2.625,15.4375,31.125,2.625,15.4375,0.626472466465169,0.10313596622457859,0.7599971177965523,-0.13892300807606975,-155.09304882823332,78.78093057674818,-174.89956920823687,0.4844970703125,-0.55059814453125,0.5355224609375,0.418701171875,-154.6877012090336,78.51886754818408,-67.60739581219775,54.07372042350848,,,,3,0,2,1
1788935693.0549073,954529026.0,-9.4375,-0.77734375,-1.796875,0.0234375,0.05078125,-0.033203125,31.125,2.625,15.4375,31.125,2.625,15.4375,0.6263905023778439,0.10320090423662516,0.7600736864783825,-0.13882544081953038,-155.17632221800486,78.77187678824906,-174.98030109378018,0.4844970703125,-0.55059814453125,0.5355224609375,0.418701171875,-154.6877012090336,78.51886754818408,-67.60739581219775,54.07449667469098,,,,3,0,2,1
1788935693.0688615,954533156.0,-9.44140625,-0.77734375,-1.87109375,0.0234375,0.05078125,-0.033203125,31.125,2.625,15.4375,31.125,2.625,15.4375,0.6262839151851193,0.10327508651214648,0.7601715325518248,-0.1387153747214663,-155.27312909238984,78.75964043224013,-175.07435222175874,0.4844970703125,-0.55059814453125,0.5355224609375,0.418701171875,-154.6877012090336,78.51886754818408,-67.60739581219775,54.07519223840055,,,,3,0,2,1
1788935693.0708146,954537339.0,-9.48046875,-0.77734375,-1.87109375,0.021484375,0.044921875,-0.037109375,31.8125,4.6875,15.125,31.8125,4.6875,15.125,0.6261454427234017,0.10332707730216348,0.7602924105330401,-0.13863928064862205,-155.35252699069278,78.74188502210121,-175.15206314522362,0.4844970703125,-0.55072021484375,0.53558349609375,0.41839599609375,-154.6344679099492,78.46866823196653,-67.56048140958616,54.0948434529693,,,,3,0,2,1
1788935693.0708146,954540745.0,-9.4375,-0.81640625,-1.8359375,0.025390625,0.046875,-0.048828125,31.8125,4.6875,15.125,31.8125,4.6875,15.125,0.6260268603533472,0.10335459466928468,0.7603947835889157,-0.13859282437285378,-155.40587901311753,78.72601560729082,-175.20412298734715,0.4844970703125,-0.55072021484375,0.53558349609375,0.41839599609375,-154.6344679099492,78.46866823196653,-67.56048140958616,54.0949296004003,,,,3,0,2,1
1788935693.0886178,954548157.0,-9.48046875,-0.77734375,-1.8359375,0.03125,0.033203125,-0.056640625,31.8125,4.6875,15.125,31.8125,4.6875,15.125,0.6258172778860374,0.1034153616712398,0.7605724879671012,-0.1385189092407624,-155.50020889504154,78.69827954290002,-175.29784446060577,0.48455810546875,-0.55084228515625,0.53564453125,0.41815185546875,-154.58102661428927,78.45655362935182,-67.52889761241396,54.10021928649694,,,,3,0,2,1
1788935693.0866647,954552387.0,-9.48046875,-0.77734375,-1.8359375,0.03125,0.033203125,-0.056640625,31.8125,4.6875,15.125,31.8125,4.6875,15.125,0.625698767474463,0.10345039536402567,0.7606730933922184,-0.138475676813938,-155.55422788851217,78.68261577397361,-175.35145643735757,0.48455810546875,-0.55084228515625,0.53564453125,0.41815185546875,-154.58102661428927,78.45655362935182,-67.52889761241396,54.09940763540784,,,,3,0,2,1
1788935693.094078,954556470.0,-9.48046875,-0.77734375,-1.8359375,0.0390625,0.03515625,-0.05859375,30.9375,5.5,13.75,30.9375,5.5,13.75,0.6255116500546186,0.10343823178070757,0.760811019249928,-0.13857236679769386,-155.54077088342106,78.65477074418565,-175.34546829433427,0.48468017578125,-0.55096435546875,0.53564453125,0.4178466796875,-154.46441419068591,78.42697934379582,-67.4296301580936,54.10766651819325,,,,3,0,2,1
1788935693.100091,954560376.0,-9.515625,-0.81640625,-1.796875,0.04296875,0.02734375,-0.064453125,30.9375,5.5,13.75,30.9375,5.5,13.75,0.6253354308156462,0.10337644805829306,0.7609353336007375,-0.13873113216360408,-155.4801215864936,78.6265650711628,-175.2933253291107,0.48468017578125,-0.55096435546875,0.53564453125,0.4178466796875,-154.46441419068591,78.42697934379582,-67.4296301580936,54.100186973807155,,,,3,0,2,1
1788935693.1026778,954564159.0,-9.51953125,-0.81640625,-1.7578125,0.052734375,0.029296875,-0.06640625,30.9375,5.5,13.75,30.9375,5.5,13.75,0.6251684439807119,0.10327900354370613,0.7610456808425841,-0.1389508393231301,-155.37819165059395,78.59818031639196,-175.2019964420784,0.48486328125,-0.55108642578125,0.53564453125,0.41748046875,-154.31429355820842,78.39689997771585,-67.30507103626975,54.11248701989357,,,,3,0,2,1
1788935693.108617,954572042.0,-9.515625,-0.93359375,-1.71875,0.056640625,0.033203125,-0.064453125,30.4375,5.4375,14.4375,30.4375,5.4375,14.4375,0.6249689178307986,0.102893957539211,0.7611729582507833,-0.1394360529958837,-155.0653902909431,78.55427873954147,-174.89824316905626,0.48486328125,-0.55108642578125,0.53564453125,0.41748046875,-154.31429355820842,78.39689997771585,-67.30507103626975,54.10961361775817,,,,3,0,2,1
1788935693.1146297,954575701.0,-9.515625,-0.89453125,-1.71875,0.0703125,0.03515625,-0.064453125,33.3125,4.8125,10.25,33.3125,4.8125,10.25,0.6249090917632278,0.10279682096241964,0.7611796432111021,-0.1397390117064568,-154.90693971089908,78.54056536719389,-174.7570486255242,0.485107421875,-0.5511474609375,0.53564453125,0.4171142578125,-154.14624149128696,78.37095849326445,-67.16853018083837,54.12405464428928,,,,3,0,2,1
1788935693.1183772,954579907.0,-9.5546875,-0.89453125,-1.7578125,0.072265625,0.033203125,-0.06640625,33.3125,4.8125,10.25,33.3125,4.8125,10.25,0.6248205758286594,0.10267762558975328,0.7612016883334637,-0.14010190185246366,-154.71991129246268,78.52154839699125,-174.59050190339545,0.485107421875,-0.5511474609375,0.53564453125,0.4171142578125,-154.14624149128696,78.37095849326445,-67.16853018083837,54.1073816170141,,,,3,0,2,1
1788935693.1283987,954587996.0,-9.515625,-0.96875,-1.71875,0.078125,0.044921875,-0.052734375,33.9375,4.5,8.75,33.9375,4.5,8.75,0.6246529566871124,0.10251108541715873,0.7612403977905137,-0.14075943250945858,-154.4003566206479,78.48742791828974,-174.3121447410952,0.4853515625,-0.55120849609375,0.53570556640625,0.41668701171875,-153.99146730084462,78.34276876187486,-67.05434040707767,54.10681423564684,,,,3,0,2,1
1788935693.1283987,954591373.0,-9.515625,-1.0078125,-1.7578125,0.078125,0.044921875,-0.052734375,33.9375,4.5,8.75,33.9375,4.5,8.75,0.6245646692701323,0.10243563763824498,0.7612712708980556,-0.1410388816830157,-154.2668882918398,78.47026175037351,-174.19584857743573,0.4853515625,-0.55120849609375,0.53570556640625,0.41668701171875,-153.99146730084462,78.34276876187486,-67.05434040707767,54.092404821005225,,,,3,0,2,1
1788935693.1341476,954596009.0,-9.51953125,-1.046875,-1.7578125,0.06640625,0.041015625,-0.04296875,34.1875,4.375,9.375,34.1875,4.375,9.375,0.6244335479997795,0.10232529108768622,0.7613291414069775,-0.14138676522483262,-154.1000311362674,78.44526431794984,-174.04907741261215,0.48553466796875,-0.55126953125,0.53582763671875,0.416259765625,-153.88377548998469,78.3128989434424,-66.98810558135185,54.11005988579947,,,,3,0,2,1
1788935693.1381588,954599139.0,-9.515625,-1.046875,-1.796875,0.0625,0.037109375,-0.041015625,34.1875,4.375,9.375,34.1875,4.375,9.375,0.6243318144335933,0.10225086347164686,0.7613809462994722,-0.14161073764895138,-153.99530724111645,78.42655424320728,-173.95705321178474,0.48553466796875,-0.55126953125,0.53582763671875,0.416259765625,-153.88377548998469,78.3128989434424,-66.98810558135185,54.09953804361394,,,,3,0,2,1
1788935693.1426938,954603698.0,-9.5546875,-1.0859375,-1.7578125,0.056640625,0.037109375,-0.025390625,34.1875,4.375,9.375,34.1875,4.375,9.375,0.6242205136842691,0.1021569485236637,0.7614288430338091,-0.14191132851282678,-153.85211293312665,78.40519110884736,-173.83133189071833,0.48565673828125,-0.55126953125,0.53594970703125,0.4158935546875,-153.80850175509426,78.26931401108446,-66.94067146398397,54.12525526752635,,,,3,0,2,1
1788935693.1452005,954608004.0,-9.51953125,-1.0859375,-1.796875,0.046875,0.03515625,-0.01953125,33.25,4.3125,10.8125,33.25,4.3125,10.8125,0.6240475237771087,0.10208551357606199,0.7615443449117908,-0.14210364780132131,-153.77762045632653,78.37663607153918,-173.767348049842,0.48565673828125,-0.55126953125,0.53594970703125,0.4158935546875,-153.80850175509426,78.26931401108446,-66.94067146398397,54.116264369430404,,,,3,0,2,1
1788935693.1502135,954613664.0,-9.55859375,-1.0859375,-1.796875,0.0390625,0.03125,-0.009765625,33.25,4.3125,10.8125,33.25,4.3125,10.8125,0.6238370584051081,0.10199198243235583,0.7616881562346879,-0.14232397103714375,-153.69134545652562,78.34177519427679,-173.69218573383097,0.48577880859375,-0.55126953125,0.53607177734375,0.4156494140625,-153.76654623211127,78.26375539224071,-66.93309101113657,54.12885329407695,,,,3,0,2,1
1788935693.1588283,954618070.0,-9.59765625,-1.046875,-1.796875,0.021484375,0.025390625,0.0,31.0625,4.5625,13.875,31.0625,4.5625,13.875,0.6237438296925165,0.10207052041366095,0.7617812567895754,-0.14217791877465552,-153.8008251054256,78.33232570177799,-173.79625168626586,0.48577880859375,-0.55126953125,0.53607177734375,0.4156494140625,-153.76654623211127,78.26375539224071,-66.93309101113657,54.13182785498378,,,,3,0,2,1
1788935693.1588283,954619123.0,-9.59765625,-1.0078125,-1.8359375,0.021484375,0.025390625,0.0,31.0625,4.5625,13.875,31.0625,4.5625,13.875,0.6237197792080474,0.10209196765869848,0.7618040881857512,-0.1421456942285479,-153.82700067377831,78.32987736014137,-173.8215800066463,0.48577880859375,-0.55126953125,0.53607177734375,0.4156494140625,-153.76654623211127,78.26375539224071,-66.93309101113657,54.132092168110084,,,,3,0,2,1
1788935693.1640139,954626606.0,-9.5546875,-1.0078125,-1.87109375,0.001953125,0.021484375,0.00390625,31.0625,4.5625,13.875,31.0625,4.5625,13.875,0.6235432332037912,0.10219657654295888,0.761982978641131,-0.1418859976525216,-154.01182950934566,78.31028220840564,-173.9939353095003,0.48577880859375,-0.55126953125,0.53619384765625,0.41552734375,-153.79166281829308,78.25925246346826,-66.97622731120249,54.15171424556386,,,,3,0,2,1
1788935693.1660104,954630589.0,-9.5546875,-0.96875,-1.87109375,-0.00390625,0.017578125,0.0078125,31.6875,5.625,15.0,31.6875,5.625,15.0,0.6234274701841617,0.10221261244426456,0.7620930982431,-0.1417916813051026,-154.08181111185235,78.29506510976952,-174.0577171795399,0.48577880859375,-0.55126953125,0.53619384765625,0.41552734375,-153.79166281829308,78.25925246346826,-66.97622731120249,54.156331621250175,,,,3,0,2,1
1788935693.173095,954638978.0,-9.59765625,-0.96875,-1.8359375,-0.017578125,0.0078125,0.01171875,32.0625,3.9375,14.375,32.0625,3.9375,14.375,0.6233821681704773,0.10236304171520465,0.7621934768773617,-0.14134208114883814,-154.3393783663817,78.29696149896881,-174.29050734031753,0.48565673828125,-0.55126953125,0.5362548828125,0.41552734375,-153.85466323124749,78.23910247055477,-67.02865565647811,54.17956479153439,,,,3,0,2,1
1788935693.1762912,954642960.0,-9.5546875,-0.93359375,-1.8359375,-0.013671875,0.005859375,0.015625,32.0625,3.9375,14.375,32.0625,3.9375,14.375,0.6233640018082638,0.10244694372466033,0.7622361676459336,-0.14113103735005755,-154.46405051557767,78.2986585230393,-174.4046339682744,0.485595703125,-0.55126953125,0.5362548828125,0.41558837890625,-153.88817847157523,78.23961769146223,-67.05398445560094,54.18208464067473,,,,3,0,2,1
1788935693.1802409,954646314.0,-9.55859375,-0.93359375,-1.796875,-0.013671875,0.005859375,0.015625,30.375,6.4375,13.5,30.375,6.4375,13.5,0.6233641716077427,0.10237716004297585,0.7622256333779319,-0.14123777992781564,-154.3937843626881,78.29563159599026,-174.33747892897134,0.485595703125,-0.55126953125,0.5362548828125,0.41558837890625,-153.88817847157523,78.23961769146223,-67.05398445560094,54.18048715584536,,,,3,0,2,1
1788935693.1822157,954650620.0,-9.5546875,-0.89453125,-1.87109375,-0.01953125,0.00390625,0.013671875,30.375,6.4375,13.5,30.375,6.4375,13.5,0.6233267603389957,0.10227938148893352,0.7622438824923536,-0.1413751801785456,-154.3080987517322,78.2860904738526,-174.25524217502175,0.485595703125,-0.55126953125,0.5362548828125,0.41558837890625,-153.88817847157523,78.23961769146223,-67.05398445560094,54.17886980928964,,,,3,0,2,1
1788935693.1981082,954658309.0,-9.5546875,-0.89453125,-1.8359375,-0.01953125,0.0,0.0234375,31.6875,4.375,14.5625,31.6875,4.375,14.5625,0.6233097202853608,0.10244692999507926,0.7623161096658233,-0.14093888064098303,-154.5597733455402,78.29231251520922,-174.48457841220502,0.48553466796875,-0.55126953125,0.5362548828125,0.4156494140625,-153.9217129415284,78.24013293462453,-67.07933054261697,54.19043748643651,,,,3,0,2,1
1788935693.1993675,954663068.0,-9.5546875,-0.89453125,-1.8359375,-0.021484375,-0.009765625,0.02734375,31.6875,4.375,14.5625,31.6875,4.375,14.5625,0.6233178969456961,0.10255267916930402,0.7623476950669058,-0.14065468057824604,-154.71906145222667,78.29891003445688,-174.6289900693191,0.48541259765625,-0.55126953125,0.53631591796875,0.415771484375,-154.01782694440055,78.25783437255234,-67.17137967020163,54.187776695203745,,,,3,0,2,1
1788935693.2016244,954668551.0,-9.5546875,-0.89453125,-1.8359375,-0.021484375,-0.01171875,0.02734375,30.375,5.25,13.0625,30.375,5.25,13.0625,0.6232093575895973,0.10252576082250807,0.7624567485541798,-0.14056411905146857,-154.77096871659097,78.28318285289622,-174.6714649759256,0.48541259765625,-0.55126953125,0.53631591796875,0.415771484375,-154.01782694440055,78.25783437255234,-67.17137967020163,54.19602827572009,,,,3,0,2,1
1788935693.2174497,954673734.0,-9.515625,-0.85546875,-1.796875,-0.01171875,-0.009765625,0.02734375,30.375,5.25,13.0625,30.375,5.25,13.0625,0.6231460152357631,0.10260051332930208,0.762537171454281,-0.14035398288206075,-154.9005845910152,78.27797388472035,-174.78997874418232,0.4853515625,-0.55120849609375,0.53631591796875,0.4158935546875,-154.06641380600672,78.26300198775432,-67.20953358369682,54.201194520188785,,,,3,0,2,1
1788935693.2194028,954678317.0,-9.51953125,-0.85546875,-1.8359375,-0.021484375,-0.013671875,0.03125,34.4375,5.0,10.5,34.4375,5.0,10.5,0.6231478505927903,0.10249544811998434,0.7625297004326055,-0.14046314596516096,-154.81740345995843,78.27413137926601,-174.70720566524653,0.4853515625,-0.55120849609375,0.53631591796875,0.4158935546875,-154.06641380600672,78.26300198775432,-67.20953358369682,54.20256361295145,,,,3,0,2,1
1788935693.2174497,954682270.0,-9.4765625,-0.85546875,-1.87109375,-0.021484375,-0.013671875,0.03125,34.4375,5.0,10.5,34.4375,5.0,10.5,0.6231059020721479,0.10241837813145913,0.7625612986376583,-0.14053389784612239,-154.76872007555133,78.26518235454263,-174.6581609730039,0.4853515625,-0.55120849609375,0.53631591796875,0.4158935546875,-154.06641380600672,78.26300198775432,-67.20953358369682,54.20394569539583,,,,3,0,2,1
1788935693.2194028,954685453.0,-9.48046875,-0.89453125,-1.91015625,-0.03515625,-0.015625,0.03125,32.1875,5.125,9.125,32.1875,5.125,9.125,0.623117603653601,0.10233000908826233,0.762552703311113,-0.14059301522445425,-154.71141903079948,78.26360367937922,-174.5984693289296,0.4852294921875,-0.55120849609375,0.53631591796875,0.41607666015625,-154.15031198537395,78.28299490650615,-67.28040726360398,54.18783147677553,,,,3,0,2,1
1788935693.2293384,954689959.0,-9.4375,-0.93359375,-1.94921875,-0.02734375,-0.0234375,0.02734375,32.1875,5.125,9.125,32.1875,5.125,9.125,0.6231215289551237,0.10220658169680745,0.7625478756137383,-0.14069154987936436,-154.62670328588646,78.25949351628493,-174.51176908200185,0.4852294921875,-0.55120849609375,0.53631591796875,0.41607666015625,-154.15031198537395,78.28299490650615,-67.28040726360398,54.19164654770768,,,,3,0,2,1
1788935693.2293384,954693342.0,-9.48046875,-0.89453125,-1.87109375,-0.013671875,-0.029296875,0.025390625,32.1875,5.125,9.125,32.1875,5.125,9.125,0.6231602631876301,0.10212570149765321,0.7625089119438111,-0.14078986712047573,-154.54937255214261,78.26169998647096,-174.43584058578872,0.48516845703125,-0.5511474609375,0.5362548828125,0.416259765625,-154.18677057515495,78.29043230487942,-67.29738093977207,54.183193278920655,,,,3,0,2,1
1788935693.2386193,954698625.0,-9.4765625,-0.81640625,-1.87109375,0.00390625,-0.03515625,0.0234375,33.75,4.6875,10.3125,33.75,4.6875,10.3125,0.6230880802187275,0.10215686731060529,0.7625629263119323,-0.14079418370517405,-154.57142108415442,78.25237842629853,-174.46099150866942,0.48516845703125,-0.5511474609375,0.5362548828125,0.416259765625,-154.18677057515495,78.29043230487942,-67.29738093977207,54.17959049075435,,,,3,0,2,1
1788935693.2409348,954702778.0,-9.4765625,-0.85546875,-1.8359375,0.00390625,-0.03515625,0.0234375,33.75,4.6875,10.3125,33.75,4.6875,10.3125,0.6230525726075078,0.1021052399108167,0.7625796569640877,-0.1408981140202211,-154.51539776151185,78.24488975189246,-174.40942873849843,0.48516845703125,-0.5511474609375,0.5362548828125,0.416259765625,-154.18677057515495,78.29043230487942,-67.29738093977207,54.176339315564036,,,,3,0,2,1
1788935693.2436452,954707837.0,-9.4375,-0.81640625,-1.87109375,-0.001953125,-0.041015625,0.029296875,35.125,4.8125,11.25,35.125,4.8125,11.25,0.6230213982915024,0.10219642870303795,0.7626143088924984,-0.14078225422141613,-154.60230556047333,78.24422822912133,-174.4943081944374,0.4852294921875,-0.551025390625,0.5362548828125,0.41644287109375,-154.2166668907053,78.3372833206715,-67.33773300312666,54.16807301044524,,,,3,0,2,1
1788935693.2456129,954709014.0,-9.44140625,-0.89453125,-1.8359375,-0.001953125,-0.041015625,0.029296875,35.125,4.8125,11.25,35.125,4.8125,11.25,0.6230100101541952,0.10218982982859783,0.7626233088525112,-0.14078868818949578,-154.5994751569494,78.24234465137305,-174.49149815984933,0.4852294921875,-0.551025390625,0.5362548828125,0.41644287109375,-154.2166668907053,78.3372833206715,-67.33773300312666,54.168111633649445,,,,3,0,2,1
1788935693.2345452,954713043.0,-9.48046875,-0.89453125,-1.87109375,-0.001953125,-0.041015625,0.029296875,35.125,4.8125,11.25,35.125,4.8125,11.25,0.6229684836496523,0.10218809365953814,0.7626580345220337,-0.14078559682180083,-154.60817058428015,78.23638724143349,-174.49990194213888,0.4852294921875,-0.551025390625,0.5362548828125,0.41644287109375,-154.2166668907053,78.3372833206715,-67.33773300312666,54.1682057899364,,,,3,0,2,1
1788935693.2456129,954717226.0,-9.48046875,-0.93359375,-1.8359375,-0.009765625,-0.04296875,0.03515625,31.4375,5.75,14.375,31.4375,5.75,14.375,0.6229381344068267,0.1021454711949677,0.762688917798521,-0.1407835149561948,-154.6009705901503,78.23069988825253,-174.48910764849015,0.48529052734375,-0.55084228515625,0.53619384765625,0.4166259765625,-154.21610944777197,78.3530071744494,-67.32952876372434,54.178312664058176,,,,3,0,2,1
1788935693.2456129,954721332.0,-9.4375,-1.0078125,-1.796875,-0.017578125,-0.046875,0.029296875,31.4375,5.75,14.375,31.4375,5.75,14.375,0.6229593329617789,0.10202475812646496,0.7626737051630038,-0.14085963814374725,-154.52400747228006,78.22927473254673,-174.40848270086943,0.48529052734375,-0.55084228515625,0.53619384765625,0.4166259765625,-154.21610944777197,78.3530071744494,-67.32952876372434,54.183650933532846,,,,3,0,2,1
