pc_unix,dev_us,ax,ay,az,gx,gy,gz,mx_raw,my_raw,mz_raw,mx,my,mz,host_qw,host_qx,host_qy,host_qz,host_roll,host_pitch,host_yaw,chip_qw,chip_qx,chip_qy,chip_qz,chip_roll,chip_pitch,chip_yaw,diff_deg,rel_roll,rel_pitch,rel_yaw,cal_acc,cal_gyr,cal_mag,cal_rv
1788939804.3259609,770889379.0,-9.31640625,1.56640625,2.609375,-0.005859375,0.0234375,-0.009765625,21.5,-9.125,-29.8125,21.5,-9.125,-29.8125,0.03480578987400866,-0.604348573568648,0.12617939859201785,0.7858944700071018,33.3217339517787,73.47424111688474,-159.88872421482088,0.53143310546875,0.51641845703125,0.33941650390625,-0.57940673828125,33.367361868474916,73.57425281012328,-69.69198216147885,0.3684483875653648,,,,3,0,3,3
1788939804.332684,770897068.0,-9.34375,1.52734375,2.49609375,-0.00390625,0.05078125,-0.009765625,21.5625,-10.0625,-29.5625,21.5625,-10.0625,-29.5625,0.03481213896427355,-0.6042825712997878,0.12631688901562682,0.7859228540724991,33.34880636478045,73.46250935661064,-159.87370546065168,0.5313720703125,0.51641845703125,0.33953857421875,-0.579345703125,33.35823817051869,73.57937129065252,-69.67819183604618,0.9188485542411697,,,,3,0,3,3
1788939804.3370209,770902227.0,-9.421875,1.56640625,2.41796875,0.0,0.05078125,-0.0078125,21.5625,-10.0625,-29.5625,21.5625,-10.0625,-29.5625,0.03479266613264559,-0.6042759397021888,0.12654437245615446,0.7858922196332631,33.422585759178425,73.45515637721257,-159.8171961126383,0.53125,0.51654052734375,0.3397216796875,-0.5792236328125,33.3928734454552,73.60512916902778,-69.63338141150476,1.0678298030352031,,,,3,0,3,3
1788939804.3409793,770905280.0,-9.421875,1.56640625,2.37890625,0.0,0.05078125,-0.0078125,20.6875,-8.8125,-30.9375,20.6875,-8.8125,-30.9375,0.03477417721672304,-0.6043281532112543,0.1264038266807926,0.7858755069574486,33.39401313273096,73.46469899027525,-159.83249878681832,0.53125,0.51654052734375,0.3397216796875,-0.5792236328125,33.3928734454552,73.60512916902778,-69.63338141150476,1.0631275284535635,,,,3,0,3,3
1788939804.3449376,770908510.0,-9.46484375,1.56640625,2.37890625,0.001953125,0.05078125,-0.009765625,20.6875,-8.8125,-30.9375,20.6875,-8.8125,-30.9375,0.03476039567356953,-0.6043883903071288,0.1262525901700706,0.7858541035268078,33.36289407388793,73.47573622080297,-159.84983016445213,0.53125,0.51654052734375,0.3397216796875,-0.5792236328125,33.3928734454552,73.60512916902778,-69.63338141150476,1.058227229833695,,,,3,0,3,3
1788939804.3449376,770917046.0,-9.46484375,1.52734375,2.3046875,0.005859375,0.05078125,-0.01171875,20.25,-10.5,-29.8125,20.25,-10.5,-29.8125,0.03482915599367067,-0.604595792387505,0.12663388872935744,0.7856301394074531,33.514866166478015,73.49570790415285,-159.73461851989336,0.5311279296875,0.51666259765625,0.33984375,-0.57916259765625,33.423316172918575,73.63053718391267,-69.60865499736944,1.012865870818065,,,,3,0,3,3
1788939804.3449376,770920175.0,-9.5390625,1.52734375,2.2265625,0.0,0.05078125,-0.017578125,20.25,-10.5,-29.8125,20.25,-10.5,-29.8125,0.034856569823952056,-0.604703143275991,0.12673323723608285,0.7855302760759173,33.56458266005138,73.50817044296123,-159.69514066061225,0.5311279296875,0.51666259765625,0.33984375,-0.57916259765625,33.423316172918575,73.63053718391267,-69.60865499736944,1.0139743922422662,,,,3,0,3,3
1788939804.3612804,770924811.0,-9.5390625,1.52734375,2.1875,0.01171875,0.044921875,-0.009765625,24.75,-9.4375,-36.25,24.75,-9.4375,-36.25,0.03487255287197938,-0.6048650122383913,0.1265286248182413,0.7854379218803015,33.533521937940804,73.53490654855977,-159.7102040731415,0.531005859375,0.516845703125,0.34002685546875,-0.57904052734375,33.48341196420546,73.67071700712484,-69.56068109654419,0.6761788834296228,,,,3,0,2,3
1788939804.3652794,770927941.0,-9.54296875,1.52734375,2.1484375,0.009765625,0.033203125,-0.009765625,24.75,-9.4375,-36.25,24.75,-9.4375,-36.25,0.034882962628112545,-0.6049678796740675,0.12639302624568222,0.7853800649350652,33.51194741372607,73.55205009623029,-159.72117277193985,0.531005859375,0.516845703125,0.34002685546875,-0.57904052734375,33.48341196420546,73.67071700712484,-69.56068109654419,0.6675189985926884,,,,3,0,2,3
1788939804.3712797,770936177.0,-9.5390625,1.52734375,2.11328125,0.01171875,0.03125,-0.009765625,24.6875,-10.5,-37.0,24.6875,-10.5,-37.0,0.034918633910363144,-0.60529485041813,0.12614079703631842,0.7851670729126189,33.49905338710038,73.60213618283292,-159.71538117147514,0.5308837890625,0.51690673828125,0.340087890625,-0.57904052734375,33.48448808379889,73.6814139482888,-69.5590284152084,0.8689201316259157,,,,3,0,2,3
1788939804.3755543,770940283.0,-9.54296875,1.48828125,2.07421875,0.005859375,0.01953125,-0.013671875,24.6875,-10.5,-37.0,24.6875,-10.5,-37.0,0.034949103285837106,-0.6054422668337918,0.12600688173434696,0.7850735554495908,33.48388718297899,73.62581360197092,-159.72162755692526,0.5308837890625,0.51690673828125,0.340087890625,-0.57904052734375,33.48448808379889,73.6814139482888,-69.5590284152084,0.8630465072673029,,,,3,0,2,3
1788939804.3769968,770943943.0,-9.5,1.41015625,2.03515625,0.001953125,0.001953125,-0.0078125,24.125,-9.875,-36.375,24.125,-9.875,-36.375,0.03497815166662774,-0.6055374685989929,0.12586505153181785,0.7850215868570768,33.45464213577354,73.64288270784184,-159.74129445961555,0.53082275390625,0.5169677734375,0.34014892578125,-0.57904052734375,33.496307361521474,73.7005861765448,-69.56241339545029,0.4641686002435624,,,,3,0,2,3
1788939804.3769968,770947472.0,-9.50390625,1.375,2.07421875,0.00390625,-0.009765625,-0.00390625,24.125,-9.875,-36.375,24.125,-9.875,-36.375,0.03501280547620344,-0.6056041466769866,0.12572334800811683,0.7849913125289697,33.41775741784349,73.65648251121814,-159.76913175835313,0.53082275390625,0.5169677734375,0.34014892578125,-0.57904052734375,33.496307361521474,73.7005861765448,-69.56241339545029,0.45577959991010036,,,,3,0,2,3
1788939804.3730617,770952032.0,-9.4609375,1.375,2.03515625,0.0078125,-0.015625,0.001953125,24.125,-9.875,-36.375,24.125,-9.875,-36.375,0.03505096807771468,-0.6056844709145891,0.12556445912661962,0.7849530673447738,33.37774625895678,73.67241994373029,-159.79893035779932,0.53082275390625,0.5169677734375,0.34014892578125,-0.57904052734375,33.496307361521474,73.7005861765448,-69.56241339545029,0.44705950123470584,,,,3,0,2,3
1788939804.3769968,770955985.0,-9.4609375,1.3359375,2.03515625,0.0078125,-0.015625,0.001953125,23.25,-10.1875,-35.875,23.25,-10.1875,-35.875,0.03509741514020312,-0.6057607576300844,0.12544579303396244,0.7849110962242684,33.3477801156027,73.68715110744782,-159.82270165860686,0.53082275390625,0.5169677734375,0.34014892578125,-0.57904052734375,33.496307361521474,73.7005861765448,-69.56241339545029,0.44060187327878547,,,,3,0,2,3
1788939804.3936908,770959314.0,-9.42578125,1.375,1.95703125,0.0078125,-0.0234375,0.009765625,23.25,-10.1875,-35.875,23.25,-10.1875,-35.875,0.03511614404028441,-0.6058219152877938,0.12537659771830922,0.784874112281296,33.33581007577458,73.69756461920204,-159.83034107744493,0.53082275390625,0.5169677734375,0.34014892578125,-0.57904052734375,33.496307361521474,73.7005861765448,-69.56241339545029,0.4371504658675973,,,,3,0,2,3
1788939804.3897557,770966650.0,-9.42578125,1.41015625,1.99609375,0.00390625,-0.044921875,0.017578125,20.9375,-11.3125,-31.875,20.9375,-11.3125,-31.875,0.035149109534435126,-0.6058342715570405,0.12560147063048888,0.7848271440778184,33.403042970613335,73.69482172192477,-159.7843993793929,0.5308837890625,0.51690673828125,0.34002685546875,-0.5791015625,33.48011043647523,73.68106603473795,-69.57928498528825,0.5798582350755103,,,,3,0,3,3
1788939804.3936908,770967704.0,-9.34765625,1.375,2.07421875,0.00390625,-0.052734375,0.02734375,20.9375,-11.3125,-31.875,20.9375,-11.3125,-31.875,0.0351547977051915,-0.6058299779473415,0.12563939688091344,0.784824133147058,33.41290487321201,73.69353765888452,-159.77815261504668,0.5308837890625,0.51690673828125,0.34002685546875,-0.5791015625,33.48011043647523,73.68106603473795,-69.57928498528825,0.5810229217527422,,,,3,0,3,3
1788939804.3917377,770972110.0,-9.38671875,1.41015625,2.07421875,0.00390625,-0.052734375,0.02734375,20.9375,-11.3125,-31.875,20.9375,-11.3125,-31.875,0.03516782298893929,-0.6058102244123865,0.12580445306122703,0.7848123570724392,33.458010922859,73.68733693880213,-159.74782365266051,0.5308837890625,0.51690673828125,0.34002685546875,-0.5791015625,33.48011043647523,73.68106603473795,-69.57928498528825,0.5865986162409467,,,,3,0,3,3
1788939804.4120371,770974916.0,-9.34375,1.48828125,2.11328125,0.009765625,-0.05859375,0.03125,20.75,-11.6875,-31.25,20.75,-11.6875,-31.25,0.035163226873401225,-0.6057680122670883,0.12595156876947922,0.7848215498534284,33.495962384399995,73.67797037914602,-159.72177189395958,0.531005859375,0.51678466796875,0.33978271484375,-0.5792236328125,33.447852059250415,73.6420664510429,-69.61296237733173,0.7906927874723162,,,,3,0,3,3
1788939804.405071,770978822.0,-9.34765625,1.44921875,2.11328125,0.00390625,-0.0625,0.033203125,20.75,-11.6875,-31.25,20.75,-11.6875,-31.25,0.03515800960059333,-0.6057073488039991,0.12614355026285676,0.784837770939216,33.544006875756224,73.66505294284445,-159.68933279907475,0.531005859375,0.51678466796875,0.33978271484375,-0.5792236328125,33.447852059250415,73.6420664510429,-69.61296237733173,0.7961920744598534,,,,3,0,3,3
1788939804.4120371,770987111.0,-9.34375,1.48828125,2.2265625,-0.0078125,-0.06640625,0.029296875,20.3125,-9.0,-29.25,20.3125,-9.0,-29.25,0.035109548009402344,-0.6056569220791995,0.1258362906859443,0.7849281752635259,33.44537016478666,73.66435068229015,-159.75866746392887,0.53125,0.51666259765625,0.33953857421875,-0.57928466796875,33.44416545575312,73.6071453352699,-69.62504581077592,0.3435310523176129,,,,3,0,3,3
1788939804.4120371,770991464.0,-9.3828125,1.48828125,2.2265625,-0.0078125,-0.06640625,0.029296875,20.3125,-9.0,-29.25,20.3125,-9.0,-29.25,0.035085953216559544,-0.6056423603658121,0.12569368248423082,0.7849633146848118,33.40183291165565,73.66511639729558,-159.78849610045128,0.53125,0.51666259765625,0.33953857421875,-0.57928466796875,33.44416545575312,73.6071453352699,-69.62504581077592,0.33560842263173146,,,,3,0,3,3
1788939804.4277408,770995424.0,-9.38671875,1.52734375,2.265625,-0.00390625,-0.064453125,0.033203125,20.875,-9.625,-30.0,20.875,-9.625,-30.0,0.035019183018286625,-0.6056056814789206,0.12583996190948363,0.7849711583031593,33.45367013025015,73.65399243746032,-159.74339553337995,0.53143310546875,0.51654052734375,0.33929443359375,-0.579345703125,33.42986509430866,73.5638530307593,-69.6321295365508,0.6835518865666996,,,,3,0,3,3
1788939804.4277408,770998554.0,-9.42578125,1.56640625,2.3046875,-0.00390625,-0.0625,0.03515625,20.875,-9.625,-30.0,20.875,-9.625,-30.0,0.034914370516390104,-0.6055081341703322,0.12600247981885648,0.7850250067765394,33.504638686349345,73.63304399489404,-159.69753063839545,0.53143310546875,0.51654052734375,0.33929443359375,-0.579345703125,33.42986509430866,73.5638530307593,-69.6321295365508,0.6878985058114295,,,,3,0,3,3
1788939804.4277408,771006889.0,-9.3828125,1.6015625,2.41796875,-0.005859375,-0.060546875,0.029296875,20.5625,-10.0625,-30.0625,20.5625,-10.0625,-30.0625,0.03476607476646055,-0.6050982436732798,0.12635982839422713,0.7852901561314941,33.5550542831557,73.56502754116435,-159.665478742316,0.53167724609375,0.516357421875,0.33905029296875,-0.57940673828125,33.40132281441575,73.51470404723568,-69.64710265201342,0.8985541994117703,,,,3,0,3,3
1788939804.4451282,771010996.0,-9.3828125,1.6015625,2.45703125,-0.005859375,-0.060546875,0.03125,20.5625,-10.0625,-30.0625,20.5625,-10.0625,-30.0625,0.034696898177053806,-0.6048838874936429,0.12651323659067373,0.7854336438393899,33.56907337356973,73.53065316777429,-159.65897798647984,0.53167724609375,0.516357421875,0.33905029296875,-0.57940673828125,33.40132281441575,73.51470404723568,-69.64710265201342,0.9023088888540316,,,,3,0,3,3
1788939804.446128,771014455.0,-9.3828125,1.6015625,2.5703125,-0.013671875,-0.056640625,0.01953125,20.125,-11.625,-31.0,20.125,-11.625,-31.0,0.03467082161406339,-0.6047320827048731,0.12665965439617288,0.7855280862097003,33.586138108121546,73.50628013586407,-159.6522415807836,0.5318603515625,0.5162353515625,0.3388671875,-0.5794677734375,33.38451554298699,73.48463628789813,-69.66540433987204,0.7866190451005032,,,,3,0,3,3
1788939804.446128,771018761.0,-9.3828125,1.56640625,2.609375,-0.01953125,-0.046875,0.021484375,20.125,-11.625,-31.0,20.125,-11.625,-31.0,0.03463454580445526,-0.604549678991091,0.1268219993974969,0.7856438851906816,33.60336394568083,73.47714411219425,-159.6458978685364,0.5318603515625,0.5162353515625,0.3388671875,-0.5794677734375,33.38451554298699,73.48463628789813,-69.66540433987204,0.7922933633374142,,,,3,0,3,3
1788939804.4621754,771026021.0,-9.34765625,1.52734375,2.53125,-0.009765625,-0.046875,0.025390625,25.1875,-9.75,-35.5,25.1875,-9.75,-35.5,0.034559098876035345,-0.604313133235156,0.12657941423231772,0.7858682825874755,33.48969679185671,73.44969218300689,-159.7338128622134,0.53204345703125,0.51605224609375,0.33868408203125,-0.57952880859375,33.34293749460442,73.44036131977316,-69.68654765817864,1.1124855185450728,,,,3,0,2,3
1788939804.465316,771030127.0,-9.3125,1.41015625,2.53125,-0.015625,-0.033203125,0.025390625,25.1875,-9.75,-35.5,25.1875,-9.75,-35.5,0.03452850100916371,-0.6042112815629109,0.12642268214124083,0.7859731644848822,33.42412136068104,73.43925388942505,-159.78412277585585,0.53204345703125,0.51605224609375,0.33868408203125,-0.57952880859375,33.34293749460442,73.44036131977316,-69.68654765817864,1.109025021651945,,,,3,0,2,3
1788939804.47126,771033586.0,-9.23828125,1.41015625,2.6484375,0.0,-0.025390625,0.0234375,23.5625,-10.6875,-35.8125,23.5625,-10.6875,-35.8125,0.034520801840954296,-0.6040981266010537,0.1263650205033086,0.7860697483496953,33.38240815485472,73.4257692779341,-159.82067557971627,0.5322265625,0.5159912109375,0.33856201171875,-0.57952880859375,33.35532533043712,73.42495913110427,-69.6818677963032,0.7595879795481664,,,,3,0,2,3
1788939804.4773614,771038393.0,-9.234375,1.44921875,2.6484375,0.013671875,-0.013671875,0.021484375,23.5625,-10.6875,-35.8125,23.5625,-10.6875,-35.8125,0.034520374960368194,-0.6039575162548069,0.12631911045701683,0.7861851846767837,33.33684442784622,73.40872521089322,-159.86270713766564,0.5322265625,0.5159912109375,0.33856201171875,-0.57952880859375,33.35532533043712,73.42495913110427,-69.6818677963032,0.7585513528117606,,,,3,0,2,3
1788939804.4754083,771041646.0,-9.23828125,1.52734375,2.53125,0.013671875,-0.013671875,0.021484375,23.5625,-10.6875,-35.8125,23.5625,-10.6875,-35.8125,0.034503448989490405,-0.6038622618399079,0.12628914532736607,0.7862639076708937,33.30978478187747,73.396480866734,-159.88610806463026,0.5322265625,0.5159912109375,0.33856201171875,-0.57952880859375,33.35532533043712,73.42495913110427,-69.6818677963032,0.7583912261175056,,,,3,0,2,3
1788939804.4824784,771045629.0,-9.2734375,1.52734375,2.41796875,0.03125,-0.00390625,0.025390625,22.9375,-10.6875,-35.9375,22.9375,-10.6875,-35.9375,0.034489458609492755,-0.6037804413161861,0.12624534254874423,0.7863343877852511,33.28082159367051,73.38643592629643,-159.91047675735214,0.53228759765625,0.51605224609375,0.33843994140625,-0.57952880859375,33.396166829548925,73.42136808623991,-69.66158676333048,0.0,,,,3,0,2,3
1788939804.4854374,771049735.0,-9.2734375,1.6015625,2.41796875,0.041015625,0.005859375,0.01953125,22.9375,-10.6875,-35.9375,22.9375,-10.6875,-35.9375,0.03444468769877398,-0.6036963641292011,0.12625640784944467,0.786399124429492,33.27479444095037,73.37349435774495,-159.91394397695942,0.53228759765625,0.51605224609375,0.33843994140625,-0.57952880859375,33.396166829548925,73.42136808623991,-69.66158676333048,0.0,,,,3,0,2,3
1788939804.493731,771057224.0,-9.31640625,1.7578125,2.37890625,0.06640625,0.01171875,-0.005859375,24.5,-10.3125,-36.0,24.5,-10.3125,-36.0,0.03433472461612661,-0.6036311221291448,0.12632125606723033,0.7864435995977344,33.30299515793711,73.35903627321566,-159.88226852307298,0.5322265625,0.51617431640625,0.3382568359375,-0.57958984375,33.43647979410295,73.41499883392846,-69.64860235677209,0.0,,,,3,0,2,3
1788939804.4977686,771062183.0,-9.421875,1.6015625,2.3046875,0.056640625,0.01171875,-0.013671875,24.5,-10.3125,-36.0,24.5,-10.3125,-36.0,0.03438316784381064,-0.6037132952810871,0.1261734935298592,0.7864021263961243,33.26522159447185,73.37530017662152,-159.9115800890689,0.53204345703125,0.516357421875,0.338134765625,-0.57965087890625,33.47780006109655,73.41931853704305,-69.63402605894042,0.3036423883203407,,,,3,0,2,3
1788939804.5017037,771065636.0,-9.5,1.6796875,2.265625,0.056640625,0.01171875,-0.013671875,20.375,-10.25,-31.125,20.375,-10.25,-31.125,0.034415834908893946,-0.6037639794176572,0.1263717482906442,0.7863299490031171,33.331647634395736,73.37819416328689,-159.86414093725992,0.53204345703125,0.516357421875,0.338134765625,-0.57965087890625,33.47780006109655,73.41931853704305,-69.63402605894042,0.31035700214593115,,,,3,0,3,3
1788939804.5056243,771068866.0,-9.54296875,1.7578125,2.265625,0.0546875,0.0078125,-0.015625,20.375,-10.25,-31.125,20.375,-10.25,-31.125,0.03443424043914604,-0.6038002669183403,0.12655549299664248,0.786271726534216,33.39328094904401,73.37900829466571,-159.81915812318243,0.53204345703125,0.516357421875,0.338134765625,-0.57965087890625,33.47780006109655,73.41931853704305,-69.63402605894042,0.31885699292073283,,,,3,0,3,3
1788939804.5102131,771076755.0,-9.5,1.79296875,2.2265625,0.0390625,0.0,-0.01953125,20.75,-9.25,-30.625,20.75,-9.25,-30.625,0.03432435205012672,-0.6039482326044399,0.12675978852637754,0.786129968391398,33.512372774497564,73.38855840151224,-159.7076872391579,0.53179931640625,0.51654052734375,0.3380126953125,-0.57977294921875,33.50169071309267,73.42804354450425,-69.64569352333136,0.5124829203306326,,,,3,0,3,3
1788939804.5102131,771081308.0,-9.4609375,1.71875,2.2265625,0.0390625,0.0,-0.01953125,20.75,-9.25,-30.625,20.75,-9.25,-30.625,0.03427180958355877,-0.6040569578447705,0.12682198224757513,0.7860386883391843,33.56679423344624,73.39890518206957,-159.65388639345232,0.53179931640625,0.51654052734375,0.3380126953125,-0.57977294921875,33.50169071309267,73.42804354450425,-69.64569352333136,0.5157683732968726,,,,3,0,3,3
1788939804.50826,771085168.0,-9.42578125,1.6796875,2.3046875,0.021484375,-0.009765625,-0.021484375,20.5,-9.625,-30.375,20.5,-9.625,-30.375,0.03421035554892497,-0.6040646413719651,0.12696394930536786,0.786012542008179,33.62532759731252,73.39381561770773,-159.60207619391971,0.53167724609375,0.5166015625,0.33795166015625,-0.57989501953125,33.49430573025431,73.43798451023552,-69.68418084727861,0.0,,,,3,0,3,3
1788939804.5253172,771088197.0,-9.4609375,1.91015625,2.45703125,0.009765625,-0.009765625,-0.025390625,20.5,-9.625,-30.375,20.5,-9.625,-30.375,0.03416220079631901,-0.6040045686106564,0.1270501311605428,0.7860468747513061,33.648528327831414,73.38193101025973,-159.58221147109282,0.53167724609375,0.5166015625,0.33795166015625,-0.57989501953125,33.49430573025431,73.43798451023552,-69.68418084727861,0.0,,,,3,0,3,3
1788939804.5253172,771096733.0,-9.31640625,1.52734375,2.2265625,-0.017578125,-0.009765625,-0.029296875,19.8125,-10.5625,-30.5625,19.8125,-10.5625,-30.5625,0.034259188187064325,-0.6040772541108793,0.1272523977825212,0.785954073944033,33.708194236643415,73.39007767590587,-159.54707723900805,0.5316162109375,0.51654052734375,0.33795166015625,-0.5799560546875,33.451973744958686,73.42814083008275,-69.71332285425314,0.7765682971263806,,,,3,0,3,3
1788939804.5253172,771101039.0,-9.31640625,1.44921875,2.265625,-0.015625,-0.005859375,-0.0390625,19.8125,-10.5625,-30.5625,19.8125,-10.5625,-30.5625,0.034386733647592795,-0.6041175860061541,0.12733360195968382,0.785904350820836,33.716654321482785,73.39837105123455,-159.55568541898577,0.5316162109375,0.51654052734375,0.33795166015625,-0.5799560546875,33.451973744958686,73.42814083008275,-69.71332285425314,0.776017895203433,,,,3,0,3,3
1788939804.5413542,771104499.0,-9.3125,1.44921875,2.41796875,-0.00390625,-0.013671875,-0.02734375,20.875,-9.625,-30.0,20.875,-9.625,-30.0,0.034477384892708594,-0.6040411252861527,0.12720652721008116,0.7859797251387273,33.64139246724385,73.39540344945553,-159.6279949389862,0.53155517578125,0.51641845703125,0.33807373046875,-0.580078125,33.37238790371852,73.44281336051637,-69.79890956578424,0.41339966782485443,,,,3,0,3,3
1788939804.5452523,771107929.0,-9.3125,1.44921875,2.5703125,-0.0078125,-0.0078125,-0.0078125,20.875,-9.625,-30.0,20.875,-9.625,-30.0,0.034509528940516,-0.6039491845631411,0.12713306755454024,0.7860608487973392,33.59133967245753,73.38669793449371,-159.6747894996412,0.53155517578125,0.51641845703125,0.33807373046875,-0.580078125,33.37238790371852,73.44281336051637,-69.79890956578424,0.40768108206909287,,,,3,0,3,3
1788939804.5468204,771112188.0,-9.31640625,1.44921875,2.609375,-0.0234375,0.0078125,-0.013671875,20.375,-8.3125,-30.9375,20.375,-8.3125,-30.9375,0.034510624959626625,-0.6039115658670183,0.12692360205542394,0.7861235504793241,33.51735923690732,73.38718139665075,-159.7315840374449,0.53155517578125,0.516357421875,0.338134765625,-0.580078125,33.34479199524843,73.44162249640371,-69.81297273307261,0.6679761397498027,,,,3,0,3,3
1788939804.548788,771119694.0,-9.31640625,1.41015625,2.49609375,-0.017578125,0.021484375,-0.01953125,20.375,-8.3125,-30.9375,20.375,-8.3125,-30.9375,0.03455178654184115,-0.6039298256136373,0.1265160261150477,0.7861734127513506,33.385793172474656,73.40145991516577,-159.83270269888243,0.53155517578125,0.516357421875,0.338134765625,-0.580078125,33.34479199524843,73.44162249640371,-69.81297273307261,0.6539911303274509,,,,3,0,3,3
1788939804.557012,771124530.0,-9.31640625,1.375,2.45703125,-0.013671875,0.02734375,-0.017578125,24.3125,-11.5625,-35.1875,24.3125,-11.5625,-35.1875,0.03467390382046937,-0.6038872094956244,0.12638148088001216,0.7862224112120004,33.309345494148886,73.40421616526704,-159.90807931570762,0.53155517578125,0.51629638671875,0.3382568359375,-0.580078125,33.31441298269781,73.453480924716,-69.83826293764999,0.4092632728843013,,,,3,0,3,3
1788939804.557012,771127460.0,-9.34375,1.375,2.45703125,-0.013671875,0.03125,-0.021484375,24.3125,-11.5625,-35.1875,24.3125,-11.5625,-35.1875,0.03475582230037507,-0.6038680968985694,0.12629635949064844,0.7862471519463418,33.261756770079174,73.40714839063206,-159.95535447110416,0.53155517578125,0.51629638671875,0.3382568359375,-0.580078125,33.31441298269781,73.453480924716,-69.83826293764999,0.40268789521867193,,,,3,0,3,3
1788939804.562445,771131889.0,-9.34375,1.375,2.41796875,-0.013671875,0.03125,-0.021484375,24.3125,-11.5625,-35.1875,24.3125,-11.5625,-35.1875,0.034908857992495615,-0.6038557185321964,0.1261587731966858,0.7862719674356524,33.18467653121656,73.41508640400994,-160.03357416790743,0.53155517578125,0.51629638671875,0.3382568359375,-0.580078125,33.31441298269781,73.453480924716,-69.83826293764999,0.3918422408757736,,,,3,0,3,3
1788939804.5714726,771135872.0,-9.3828125,1.41015625,2.33984375,-0.013671875,0.037109375,-0.005859375,23.875,-8.8125,-35.625,23.875,-8.8125,-35.625,0.03490402770787514,-0.603934308809115,0.12594041374292622,0.7862468261807388,33.1347016181196,73.43050091791761,-160.06489136700918,0.53143310546875,0.516357421875,0.33843994140625,-0.58001708984375,33.31667344813749,73.47760236358371,-69.82801165852023,0.57595905361111,,,,3,0,3,3
1788939804.575413,771139979.0,-9.421875,1.48828125,2.265625,-0.017578125,0.0390625,-0.005859375,23.875,-8.8125,-35.625,23.875,-8.8125,-35.625,0.03487785803001625,-0.6040405142008466,0.1257073509405693,0.7862036976145046,33.090538872470084,73.44900601646869,-160.0873749358231,0.53143310546875,0.516357421875,0.33843994140625,-0.58001708984375,33.31667344813749,73.47760236358371,-69.82801165852023,0.5705708090166028,,,,3,0,3,3
1788939804.5797286,771147314.0,-9.4609375,1.6015625,2.2265625,-0.00390625,0.037109375,-0.001953125,24.125,-10.375,-36.4375,24.125,-10.375,-36.4375,0.03475401460217399,-0.6043252201068836,0.12542789776236662,0.7860350051204538,33.09138366815372,73.48791354501859,-160.052637569783,0.53143310546875,0.51641845703125,0.338623046875,-0.57989501953125,33.347177157038395,73.50569842212882,-69.7962918600484,0.0,,,,3,0,2,3
1788939804.58665,771151797.0,-9.50390625,1.6796875,2.2265625,-0.013671875,0.033203125,-0.009765625,24.125,-10.375,-36.4375,24.125,-10.375,-36.4375,0.034617993807148674,-0.6045034794022902,0.12528000071067927,0.7859275153073755,33.112547091045585,73.50927927774738,-160.00771801856908,0.53143310546875,0.51641845703125,0.338623046875,-0.57989501953125,33.347177157038395,73.50569842212882,-69.7962918600484,0.0,,,,3,0,2,3
1788939804.5916128,771155480.0,-9.50390625,1.640625,2.2265625,-0.013671875,0.0234375,-0.0078125,24.375,-10.875,-36.8125,24.375,-10.875,-36.8125,0.03452418098236618,-0.6046418746247335,0.12520938636247972,0.785836429509676,33.14051419281219,73.52523398375688,-159.96593437165583,0.5313720703125,0.5164794921875,0.3387451171875,-0.579833984375,33.36293031502055,73.52510978452813,-69.77966972385757,0.0,,,,3,0,2,3
1788939804.5957637,771161763.0,-9.50390625,1.6015625,2.265625,-0.021484375,0.017578125,-0.013671875,24.375,-10.875,-36.8125,24.375,-10.875,-36.8125,0.03438252454602438,-0.6048543789471506,0.1249506388380153,0.785720281097714,33.13578582453485,73.55358613449408,-159.93719545503876,0.5313720703125,0.5164794921875,0.3387451171875,-0.579833984375,33.36293031502055,73.52510978452813,-69.77966972385757,0.0,,,,3,0,2,3
1788939804.5996797,771166846.0,-9.50390625,1.6015625,2.1484375,-0.01953125,0.009765625,-0.009765625,24.375,-10.875,-36.8125,24.375,-10.875,-36.8125,0.03431186609509314,-0.6050292738083227,0.12484797948397902,0.7856050252504843,33.15719244538134,73.57599730350616,-159.90113609610853,0.5313720703125,0.5164794921875,0.3387451171875,-0.579833984375,33.36293031502055,73.52510978452813,-69.77966972385757,0.0,,,,3,0,2,3
1788939804.6036148,771167299.0,-9.421875,1.56640625,2.2265625,-0.02734375,0.005859375,-0.005859375,24.375,-10.875,-36.8125,24.375,-10.875,-36.8125,0.03430226973094498,-0.6050430415146787,0.1248296792578764,0.7855977490945019,33.15649609287254,73.57785675747162,-159.89950300053707,0.5313720703125,0.5164794921875,0.3387451171875,-0.579833984375,33.36293031502055,73.52510978452813,-69.77966972385757,0.0,,,,3,0,2,3
1788939804.6056592,771171329.0,-9.38671875,1.56640625,2.2265625,-0.02734375,0.005859375,-0.005859375,24.375,-10.875,-36.8125,24.375,-10.875,-36.8125,0.034206988255351345,-0.6051625831644233,0.12466401308790356,0.7855361313988555,33.1508041302098,73.59369717614803,-159.88343159378732,0.5313720703125,0.5164794921875,0.3387451171875,-0.579833984375,33.36293031502055,73.52510978452813,-69.77966972385757,0.0,,,,3,0,2,3
1788939804.6096983,771174811.0,-9.3828125,1.56640625,2.265625,-0.0234375,0.0,-0.001953125,20.6875,-11.875,-29.5625,20.6875,-11.875,-29.5625,0.03418612006983123,-0.6051671969354182,0.12479480452172145,0.7855127177279085,33.19741413448042,73.59017794350535,-159.8459371499919,0.53143310546875,0.516357421875,0.33892822265625,-0.5797119140625,33.329372774977166,73.51871510488479,-69.76150618858142,0.7999954542448874,,,,3,0,3,3
1788939804.6096983,771178918.0,-9.38671875,1.52734375,2.3046875,-0.033203125,-0.005859375,-0.00390625,20.6875,-11.875,-29.5625,20.6875,-11.875,-29.5625,0.034162340493821476,-0.6051572467414684,0.12493301519727257,0.7854994480723636,33.24367634574861,73.58446275790475,-159.80919835986012,0.53143310546875,0.516357421875,0.33892822265625,-0.5797119140625,33.329372774977166,73.51871510488479,-69.76150618858142,0.8012440374541431,,,,3,0,3,3
1788939804.6158862,771182500.0,-9.34765625,1.52734375,2.3046875,-0.025390625,-0.00390625,-0.005859375,20.6875,-11.875,-29.5625,20.6875,-11.875,-29.5625,0.034151791842747636,-0.6051490561485342,0.12506332348933238,0.7854854804986979,33.28508203105677,73.5796974121977,-159.7777397496842,0.531494140625,0.5162353515625,0.33905029296875,-0.5797119140625,33.2846108557447,73.52469433548798,-69.79479997050666,0.6012578862626313,,,,3,0,3,3
1788939804.6256063,771186983.0,-9.34375,1.52734375,2.33984375,-0.025390625,-0.01171875,-0.0078125,20.125,-9.6875,-30.75,20.125,-9.6875,-30.75,0.034105938965287706,-0.6050056676811727,0.12511725184667036,0.7855893331068666,33.27930534022454,73.55794554514587,-159.78454146551252,0.531494140625,0.5162353515625,0.33905029296875,-0.5797119140625,33.2846108557447,73.52469433548798,-69.79479997050666,0.6020138951718533,,,,3,0,3,3
1788939804.6216712,771192066.0,-9.34765625,1.48828125,2.3046875,-0.03125,-0.0078125,-0.00390625,20.125,-9.6875,-30.75,20.125,-9.6875,-30.75,0.034302577066479184,-0.6050380159599934,0.12505998994085463,0.7855649759031943,33.22788011367536,73.57143817712726,-159.8472287047048,0.53155517578125,0.51617431640625,0.339111328125,-0.5797119140625,33.26754987406866,73.53186978900432,-69.81392207436373,0.0,,,,3,0,3,3
1788939804.6256063,771194719.0,-9.34765625,1.48828125,2.3046875,-0.03125,-0.0078125,-0.00390625,20.5625,-12.5,-30.6875,20.5625,-12.5,-30.6875,0.03429639102648123,-0.6050289820987926,0.1251508602784043,0.7855577321588993,33.255755573728145,73.5677367131328,-159.82639288696888,0.53155517578125,0.51617431640625,0.339111328125,-0.5797119140625,33.26754987406866,73.53186978900432,-69.81392207436373,0.0,,,,3,0,3,3
1788939804.6256063,771198049.0,-9.34375,1.41015625,2.33984375,-0.029296875,-0.001953125,0.001953125,20.5625,-12.5,-30.6875,20.5625,-12.5,-30.6875,0.03429653325425704,-0.6050190430468935,0.12527300019704282,0.7855459125849951,33.2919559137069,73.5633817864833,-159.80034144701386,0.53155517578125,0.51617431640625,0.339111328125,-0.5797119140625,33.26754987406866,73.53186978900432,-69.81392207436373,0.0,,,,3,0,3,3
1788939804.639437,771202408.0,-9.3125,1.41015625,2.3046875,-0.033203125,-0.009765625,0.005859375,20.5625,-12.5,-30.6875,20.5625,-12.5,-30.6875,0.034285452040906925,-0.6049988444768344,0.12542881985572718,0.7855370883094226,33.338752500483324,73.55639671444891,-159.76558821503997,0.53167724609375,0.51605224609375,0.33917236328125,-0.57965087890625,33.24320988701186,73.52038690985597,-69.80951107807083,0.3628420403988977,,,,3,0,3,3
1788939804.64139,771206914.0,-9.34375,1.375,2.33984375,-0.03125,-0.013671875,0.013671875,20.5,-10.625,-30.5,20.5,-10.625,-30.5,0.034359611298118355,-0.6049465016099805,0.12556540286957,0.7855523387422958,33.354650227984834,73.54915332433609,-159.76717792818238,0.53167724609375,0.51605224609375,0.33917236328125,-0.57965087890625,33.24320988701186,73.52038690985597,-69.80951107807083,0.3652859503923664,,,,3,0,3,3
1788939804.639437,771211597.0,-9.38671875,1.296875,2.33984375,-0.03515625,-0.01171875,0.017578125,20.5,-10.625,-30.5,20.5,-10.625,-30.5,0.034492730813875175,-0.6049214062669185,0.12561532418886281,0.7855578489773889,33.33724681010796,73.54998556403491,-159.7996520756228,0.53179931640625,0.51593017578125,0.33917236328125,-0.57958984375,33.22168029063035,73.4958260027829,-69.79381324122255,1.0053152149434323,,,,3,0,3,3
1788939804.64139,771216980.0,-9.34765625,1.296875,2.33984375,-0.029296875,-0.015625,0.029296875,20.875,-10.5625,-30.0625,20.875,-10.5625,-30.0625,0.03462835368921507,-0.6048679969536099,0.1257156530311694,0.7855769586520783,33.32883354135843,73.54598525299521,-159.82757737198122,0.53179931640625,0.51593017578125,0.33917236328125,-0.57958984375,33.22168029063035,73.4958260027829,-69.79381324122255,1.005550444689107,,,,3,0,3,3
1788939804.6551456,771222310.0,-9.34375,1.3359375,2.33984375,-0.029296875,-0.015625,0.029296875,20.875,-10.5625,-30.0625,20.875,-10.5625,-30.0625,0.03473014959602287,-0.6048063793240086,0.12586467765973008,0.7855960432408208,33.34088830087003,73.53834475916564,-159.8363214716819,0.53179931640625,0.51593017578125,0.33917236328125,-0.57958984375,33.22168029063035,73.4958260027829,-69.79381324122255,1.0075767427165834,,,,3,0,3,3
1788939804.6570988,771225516.0,-9.42578125,1.3359375,2.2265625,-0.025390625,-0.013671875,0.033203125,24.0,-10.125,-35.0625,24.0,-10.125,-35.0625,0.034709510807944426,-0.6048316283114388,0.12571870405215427,0.7856008902140155,33.30488708316522,73.54445315757059,-159.85848930908836,0.531982421875,0.515869140625,0.33917236328125,-0.5794677734375,33.24264762559215,73.48121279774202,-69.74888881090268,1.0655560326193192,,,,3,0,3,3
1788939804.6570988,771229622.0,-9.4609375,1.41015625,2.2265625,-0.013671875,-0.013671875,0.0390625,24.0,-10.125,-35.0625,24.0,-10.125,-35.0625,0.0346711320608728,-0.6048713516904649,0.12555931195515696,0.785597492159385,33.27155246904999,73.55206006034916,-159.8753981842421,0.531982421875,0.515869140625,0.33917236328125,-0.5794677734375,33.24264762559215,73.48121279774202,-69.74888881090268,1.062851735841141,,,,3,0,3,3
1788939804.6715782,771233782.0,-9.4609375,1.44921875,2.1484375,-0.01171875,-0.0234375,0.037109375,24.0,-10.125,-35.0625,24.0,-10.125,-35.0625,0.03462259153433999,-0.6049272599057685,0.12543190616873168,0.7855769365843323,33.25400114437663,73.56055339489652,-159.87830823689697,0.53216552734375,0.515869140625,0.339111328125,-0.57940673828125,33.28422508191804,73.48046212456859,-69.72116402833849,0.19425594247905636,,,,3,0,3,3
1788939804.6731002,771237511.0,-9.4609375,1.48828125,2.1875,-0.001953125,-0.02734375,0.037109375,24.0,-10.125,-35.0625,24.0,-10.125,-35.0625,0.03457885036545978,-0.6049663421899445,0.12532158551363073,0.7855663741079247,33.237060042176594,73.5666326187883,-159.88245220943557,0.53216552734375,0.515869140625,0.339111328125,-0.57940673828125,33.28422508191804,73.48046212456859,-69.72116402833849,0.1873813618331124,,,,3,0,3,3
1788939804.6731002,771241064.0,-9.4609375,1.52734375,2.2265625,-0.001953125,-0.02734375,0.037109375,24.0,-10.125,-35.0625,24.0,-10.125,-35.0625,0.034519891165965336,-0.6049951985398518,0.12520503794299068,0.785565328493633,33.21900833777743,73.57093649244658,-159.88596941295293,0.53216552734375,0.515869140625,0.339111328125,-0.57940673828125,33.28422508191804,73.48046212456859,-69.72116402833849,0.18075133143313554,,,,3,0,3,3
1788939804.68465,771247254.0,-9.421875,1.52734375,2.265625,-0.0078125,-0.037109375,0.041015625,23.3125,-11.4375,-37.6875,23.3125,-11.4375,-37.6875,0.03438229707126013,-0.6050731110810365,0.1251396973409813,0.7855217654808979,33.244375321508876,73.57716603486763,-159.84377623851552,0.5323486328125,0.51580810546875,0.33892822265625,-0.579345703125,33.30638098698017,73.43931290670561,-69.67395566171565,0.9274847419475163,,,,3,0,2,3
1788939804.68465,771249530.0,-9.38671875,1.52734375,2.265625,-0.0078125,-0.037109375,0.041015625,23.3125,-11.4375,-37.6875,23.3125,-11.4375,-37.6875,0.03432382798131441,-0.6051010756071846,0.12511363286852403,0.785506933134379,33.25454441713169,73.57910363793228,-159.82660914807983,0.5323486328125,0.51580810546875,0.33892822265625,-0.579345703125,33.30638098698017,73.43931290670561,-69.67395566171565,0.9279801837415143,,,,3,0,2,3
1788939804.6904433,771253313.0,-9.3828125,1.52734375,2.33984375,-0.009765625,-0.033203125,0.046875,23.3125,-11.4375,-37.6875,23.3125,-11.4375,-37.6875,0.03421773314573036,-0.6049797452729502,0.12503401038773243,0.7856176874244905,33.224176191460245,73.56115570617527,-159.84197038668745,0.53253173828125,0.5157470703125,0.3387451171875,-0.579345703125,33.321522445682895,73.410868617049,-69.65808893793108,0.8684992883955767,,,,3,0,2,3
1788939804.6953545,771261196.0,-9.34375,1.640625,2.3046875,-0.001953125,-0.037109375,0.046875,23.0,-10.9375,-37.3125,23.0,-10.9375,-37.3125,0.03371389991568545,-0.6048112906779047,0.12506638406412074,0.7857640073190729,33.300551669503434,73.51838863049498,-159.72745154074522,0.53253173828125,0.5157470703125,0.3387451171875,-0.579345703125,33.321522445682895,73.410868617049,-69.65808893793108,0.8715814009697301,,,,3,0,2,3
1788939804.7014325,771264655.0,-9.38671875,1.6796875,2.33984375,-0.00390625,-0.04296875,0.05078125,21.1875,-10.0625,-30.0,21.1875,-10.0625,-30.0,0.03359371690255725,-0.604716048036193,0.12527254516139363,0.7858096161672661,33.368595200892955,73.49604185229458,-159.66686314493714,0.53277587890625,0.5157470703125,0.33856201171875,-0.57928466796875,33.37883150538837,73.39228304649897,-69.61324565435041,0.0,,,,3,0,3,3
1788939804.7054372,771269061.0,-9.38671875,1.6796875,2.37890625,-0.009765625,-0.037109375,0.0390625,21.1875,-10.0625,-30.0,21.1875,-10.0625,-30.0,0.03345262271854466,-0.6045844006901221,0.12550447455812272,0.785879921706431,33.44065319765371,73.46748240220732,-159.60276470737924,0.53277587890625,0.5157470703125,0.33856201171875,-0.57928466796875,33.37883150538837,73.39228304649897,-69.61324565435041,0.0,,,,3,0,3,3
1788939804.711494,771276221.0,-9.38671875,1.6796875,2.33984375,-0.0078125,-0.033203125,0.033203125,20.5,-9.1875,-30.3125,20.5,-9.1875,-30.3125,0.033037540256208905,-0.6043960018032494,0.12560215321114473,0.7860267762912343,33.513776983717,73.42397889936304,-159.5042052949393,0.532958984375,0.51568603515625,0.33837890625,-0.57928466796875,33.393810258283175,73.3638602495699,-69.59758557551068,0.0,,,,3,0,3,3
1788939804.7154794,771280527.0,-9.34375,1.6015625,2.37890625,-0.005859375,-0.037109375,0.03125,20.5,-9.1875,-30.3125,20.5,-9.1875,-30.3125,0.03290879568552725,-0.6042424509734522,0.12553852115068295,0.7861603852366404,33.48573043448213,73.40060662240546,-159.51678552611392,0.532958984375,0.51568603515625,0.33837890625,-0.57928466796875,33.393810258283175,73.3638602495699,-69.59758557551068,0.0,,,,3,0,3,3
1788939804.721469,771284963.0,-9.34375,1.6015625,2.33984375,-0.005859375,-0.03515625,0.029296875,21.1875,-10.5625,-30.0,21.1875,-10.5625,-30.0,0.03284014216928168,-0.6041498664515343,0.1257813532511391,0.7861955959576516,33.55463552782832,73.37969784594894,-159.46258385463955,0.53314208984375,0.51556396484375,0.33819580078125,-0.57928466796875,33.38406260232889,73.32133513320467,-69.58487758506318,0.7294605893423531,,,,3,0,3,3
1788939804.7244742,771288593.0,-9.34375,1.6015625,2.33984375,-0.00390625,-0.029296875,0.029296875,21.1875,-10.5625,-30.0,21.1875,-10.5625,-30.0,0.032785970540489845,-0.6040828123797184,0.1259831871909532,0.7862170644728701,33.61343499383759,73.36370200789716,-159.41622165734995,0.53314208984375,0.51556396484375,0.33819580078125,-0.57928466796875,33.38406260232889,73.32133513320467,-69.58487758506318,0.7350174705151095,,,,3,0,3,3
1788939804.7268097,771296529.0,-9.31640625,1.52734375,2.41796875,-0.01171875,-0.02734375,0.02734375,20.5,-10.125,-30.4375,20.5,-10.125,-30.4375,0.03273814718334932,-0.6037735456583424,0.12626523512735405,0.7864113489010627,33.64144707493102,73.3146854593003,-159.40833594806355,0.53326416015625,0.51556396484375,0.33807373046875,-0.57928466796875,33.41045840250129,73.31183036348082,-69.57261317267972,0.0,,,,3,0,3,3
1788939804.7268097,771300258.0,-9.34375,1.52734375,2.41796875,-0.001953125,-0.017578125,0.033203125,20.5,-10.125,-30.4375,20.5,-10.125,-30.4375,0.03272753588231312,-0.6036424040716222,0.12642143244347065,0.7864873665995185,33.6626996246938,73.29335744546212,-159.3994422755744,0.53326416015625,0.51556396484375,0.33807373046875,-0.57928466796875,33.41045840250129,73.31183036348082,-69.57261317267972,0.0,,,,3,0,3,3
1788939804.7404025,771303718.0,-9.34375,1.52734375,2.41796875,-0.0078125,-0.017578125,0.037109375,20.125,-9.6875,-30.75,20.125,-9.6875,-30.75,0.032699517052398305,-0.6035250636934094,0.1263961950581585,0.7865826345357657,33.634311519205546,73.27775558105309,-159.42370267087054,0.533447265625,0.5155029296875,0.33795166015625,-0.5792236328125,33.429489596340666,73.28390559118712,-69.53725325733926,0.4361230179178528,,,,3,0,3,3
1788939804.7441134,771307924.0,-9.3125,1.44921875,2.41796875,-0.015625,-0.017578125,0.03125,20.125,-9.6875,-30.75,20.125,-9.6875,-30.75,0.03271517082352098,-0.6034193407882427,0.12628825238415628,0.7866804269018176,33.574138611484535,73.26752229806091,-159.47643998929473,0.533447265625,0.5155029296875,0.33795166015625,-0.5792236328125,33.429489596340666,73.28390559118712,-69.53725325733926,0.42933697829732986,,,,3,0,3,3
1788939804.7456222,771312154.0,-9.31640625,1.41015625,2.45703125,-0.015625,-0.017578125,0.03125,20.125,-9.6875,-30.75,20.125,-9.6875,-30.75,0.03273126479506434,-0.6033118543213266,0.1261818651173843,0.7867792623447671,33.514040770950885,73.2570262569214,-159.52927113225755,0.533447265625,0.5155029296875,0.33795166015625,-0.5792236328125,33.429489596340666,73.28390559118712,-69.53725325733926,0.4235167955919656,,,,3,0,3,3
1788939804.7500997,771316136.0,-9.3828125,1.375,2.45703125,-0.01171875,-0.009765625,0.041015625,19.75,-11.1875,-31.3125,19.75,-11.1875,-31.3125,0.032774680763164074,-0.6032306231205457,0.12635924541513552,0.786811271353295,33.542153868711715,73.24378121783546,-159.5195826702207,0.5335693359375,0.5155029296875,0.33782958984375,-0.57916259765625,33.46262979580105,73.26187109352999,-69.49420219311878,0.6921234849985872,,,,3,0,3,3
1788939804.7558103,771319466.0,-9.3828125,1.41015625,2.37890625,-0.005859375,-0.01171875,0.05078125,19.75,-11.1875,-31.3125,19.75,-11.1875,-31.3125,0.03278622782765672,-0.6031951863650307,0.12654170450601412,0.7868086345685343,33.58840185863324,73.23502658696819,-159.48947601715682,0.5335693359375,0.5155029296875,0.33782958984375,-0.57916259765625,33.46262979580105,73.26187109352999,-69.49420219311878,0.6978516428497271,,,,3,0,3,3
1788939804.7587607,771323825.0,-9.4609375,1.52734375,2.2265625,0.00390625,-0.013671875,0.05859375,19.75,-11.1875,-31.3125,19.75,-11.1875,-31.3125,0.03272563177711286,-0.6032068030829737,0.12678858314455266,0.7867625060483018,33.67950795451908,73.22776854493465,-159.41384989221257,0.53375244140625,0.5155029296875,0.33770751953125,-0.57904052734375,33.51295869171361,73.23554112818778,-69.4253327708236,0.9294386747699348,,,,3,0,3,3
1788939804.7587607,771326955.0,-9.50390625,1.6015625,2.265625,0.009765625,-0.009765625,0.046875,19.75,-11.1875,-31.3125,19.75,-11.1875,-31.3125,0.032687376725523604,-0.6032104882859258,0.12697557927367725,0.7867311132100807,33.745799149337415,73.22190232266658,-159.35992061008358,0.53375244140625,0.5155029296875,0.33770751953125,-0.57904052734375,33.51295869171361,73.23554112818778,-69.4253327708236,0.9354071786541357,,,,3,0,3,3
1788939804.7587607,771332085.0,-9.54296875,1.640625,2.2265625,0.009765625,-0.009765625,0.046875,19.75,-11.1875,-31.3125,19.75,-11.1875,-31.3125,0.03261299693357601,-0.6032284841805594,0.1272713982865562,0.7866725999311402,33.8560978763961,73.21359343700675,-159.26801924757888,0.53375244140625,0.5155029296875,0.33770751953125,-0.57904052734375,33.51295869171361,73.23554112818778,-69.4253327708236,0.946052910370157,,,,3,0,3,3
1788939804.777076,771337297.0,-9.421875,1.6015625,2.3046875,0.01171875,-0.0234375,0.046875,24.0,-9.5,-37.0625,24.0,-9.5,-37.0625,0.0325144698848825,-0.6032083177018975,0.12711479528148528,0.7867174610518682,33.82300441217885,73.2110402137652,-159.28012179106696,0.533935546875,0.51556396484375,0.3375244140625,-0.5789794921875,33.583573445287406,73.22281046123659,-69.37366942567414,0.1785609669291562,,,,3,0,2,3
1788939804.777076,771339374.0,-9.42578125,1.640625,2.3046875,0.01171875,-0.0234375,0.046875,24.0,-9.5,-37.0625,24.0,-9.5,-37.0625,0.03246859314835231,-0.6032006349523259,0.1270534171846575,0.7867351610508958,33.81154298579824,73.20977393929502,-159.28276214604514,0.533935546875,0.51556396484375,0.3375244140625,-0.5789794921875,33.583573445287406,73.22281046123659,-69.37366942567414,0.17202298169939664,,,,3,0,2,3
1788939804.7788339,771347663.0,-9.4609375,1.6015625,2.33984375,0.005859375,-0.03515625,0.044921875,23.1875,-10.25,-36.1875,23.1875,-10.25,-36.1875,0.032302859152979306,-0.6031313717342804,0.12677885259710125,0.7868393713170627,33.7445932372385,73.20122116531114,-159.31355717196413,0.5340576171875,0.515625,0.3372802734375,-0.57891845703125,33.64625053111373,73.18897372266396,-69.30637570496314,0.7483437941235633,,,,3,0,2,3
1788939804.784543,771352222.0,-9.42578125,1.640625,2.3046875,0.009765625,-0.037109375,0.05078125,23.1875,-10.25,-36.1875,23.1875,-10.25,-36.1875,0.03216606230276414,-0.6031116891006427,0.12665153904593232,0.7868805643573877,33.72836565590325,73.19643169740489,-159.30809209195937,0.53424072265625,0.515625,0.33709716796875,-0.57891845703125,33.6851933982561,73.17469032628287,-69.28869386702223,0.0,,,,3,0,2,3
1788939804.7884927,771355075.0,-9.38671875,1.640625,2.33984375,0.009765625,-0.037109375,0.05078125,22.875,-11.1875,-36.375,22.875,-11.1875,-36.375,0.03199107650019699,-0.6030822137474993,0.12673944493346287,0.7868961351943038,33.78395735729012,73.18329528387794,-159.245543164406,0.53424072265625,0.515625,0.33709716796875,-0.57891845703125,33.6851933982561,73.17469032628287,-69.28869386702223,0.0,,,,3,0,2,3
1788939804.7904675,771359182.0,-9.34765625,1.6796875,2.37890625,0.009765625,-0.03515625,0.0390625,22.875,-11.1875,-36.375,22.875,-11.1875,-36.375,0.031799302119524274,-0.6029409258237538,0.12687707906952436,0.7869899943190456,33.83315937972093,73.15380571128681,-159.1923758284329,0.53424072265625,0.515625,0.33709716796875,-0.57891845703125,33.6851933982561,73.17469032628287,-69.28869386702223,0.0,,,,3,0,2,3
1788939804.7885144,771362964.0,-9.34765625,1.6796875,2.33984375,0.013671875,-0.0390625,0.041015625,22.875,-11.1875,-36.375,22.875,-11.1875,-36.375,0.03159624966170443,-0.6028673643250869,0.12703008242744054,0.7870298445405458,33.90428326353834,73.13215221871575,-159.11749187883996,0.53436279296875,0.515625,0.33685302734375,-0.57891845703125,33.716287238927265,73.13936954520801,-69.25536243398751,0.274633356594924,,,,3,0,2,3
1788939804.7904675,771369971.0,-9.27734375,1.6796875,2.37890625,0.00390625,-0.037109375,0.05078125,19.5,-12.5625,-31.125,19.5,-12.5625,-31.125,0.03148421053662278,-0.6027091277441308,0.12748694675597233,0.7870816541043467,34.031398138918675,73.09540083859702,-159.0194308695508,0.53436279296875,0.515625,0.33685302734375,-0.57891845703125,33.716287238927265,73.13936954520801,-69.25536243398751,0.3169839235251023,,,,3,0,3,3
1788939804.8065648,771374807.0,-9.2734375,1.71875,2.41796875,0.0078125,-0.033203125,0.037109375,20.5625,-11.0,-30.1875,20.5625,-11.0,-30.1875,0.03140023812904917,-0.6025810006563723,0.127786637878016,0.7871345106608125,34.11117012399749,73.06772217309599,-158.9579170817416,0.5345458984375,0.51556396484375,0.33660888671875,-0.578857421875,33.73987409713742,73.0858682501533,-69.19939477308188,1.203885928908272,,,,3,0,3,3
1788939804.8065648,771378236.0,-9.2734375,1.71875,2.45703125,0.00390625,-0.029296875,0.041015625,20.5625,-11.0,-30.1875,20.5625,-11.0,-30.1875,0.0313317975410111,-0.6024832817109063,0.1279944194962741,0.7871782785999101,34.16638465700126,73.04696611538185,-158.9145466637652,0.5345458984375,0.51556396484375,0.33660888671875,-0.578857421875,33.73987409713742,73.0858682501533,-69.19939477308188,1.210041688575879,,,,3,0,3,3
1788939804.81799,771382896.0,-9.3125,1.6796875,2.41796875,-0.005859375,-0.025390625,0.033203125,20.5625,-11.0,-30.1875,20.5625,-11.0,-30.1875,0.03125203731106781,-0.6023794703786625,0.12825553807011728,0.7872183945923611,34.23864047434406,73.02355896095075,-158.8576464746809,0.53472900390625,0.51556396484375,0.33642578125,-0.578857421875,33.77851790016729,73.07158576303188,-69.18206268361196,0.719891619896648,,,,3,0,3,3
1788939804.8224173,771386649.0,-9.3125,1.6796875,2.41796875,-0.005859375,-0.025390625,0.033203125,21.75,-12.1875,-31.125,21.75,-12.1875,-31.125,0.03119604450539105,-0.6023072988491273,0.1284671208537703,0.7872413374689038,34.298049566288896,73.00646485739063,-158.81136128998477,0.53472900390625,0.51556396484375,0.33642578125,-0.578857421875,33.77851790016729,73.07158576303188,-69.18206268361196,0.7313701821714529,,,,3,0,3,3
1788939804.8224173,771389779.0,-9.34765625,1.56640625,2.41796875,-0.005859375,-0.017578125,0.025390625,21.75,-12.1875,-31.125,21.75,-12.1875,-31.125,0.031181935176228873,-0.6022616738325737,0.12863511736509448,0.7872493694703859,34.34180880254927,72.99562530026691,-158.78047902235934,0.53472900390625,0.51556396484375,0.33642578125,-0.578857421875,33.77851790016729,73.07158576303188,-69.18206268361196,0.7401493585281763,,,,3,0,3,3
1788939804.8204641,771397068.0,-9.34375,1.52734375,2.45703125,0.0,-0.0078125,0.029296875,20.4375,-11.6875,-31.25,20.4375,-11.6875,-31.25,0.031195840870128243,-0.6021392273824797,0.12903976094800396,0.7872762605681174,34.43483448201561,72.96986439329217,-158.72241572724744,0.53485107421875,0.51556396484375,0.3363037109375,-0.57879638671875,33.81093093704785,73.04968316193644,-69.1400252412272,0.9268292579104106,,,,3,0,3,3
1788939804.8224173,771398244.0,-9.42578125,1.48828125,2.41796875,0.0,-0.0078125,0.029296875,20.4375,-11.6875,-31.25,20.4375,-11.6875,-31.25,0.03120603943987263,-0.6021283040463745,0.1291024200341674,0.7872739381625911,34.44945103565277,72.9672326667561,-158.71385356710465,0.53485107421875,0.51556396484375,0.3363037109375,-0.57879638671875,33.81093093704785,73.04968316193644,-69.1400252412272,0.9294885789261259,,,,3,0,3,3
1788939804.8345933,771401827.0,-9.38671875,1.44921875,2.41796875,0.0,-0.0078125,0.037109375,20.4375,-11.6875,-31.25,20.4375,-11.6875,-31.25,0.031243257825191554,-0.6020903496662157,0.1292939796211524,0.7872700531031317,34.49191217285815,72.95885122767113,-158.69040622789032,0.534912109375,0.51556396484375,0.33624267578125,-0.5787353515625,33.830461678133204,73.03255853200376,-69.10378756407562,1.2171845170995674,,,,3,0,3,3
1788939804.8385284,771405780.0,-9.38671875,1.44921875,2.33984375,0.0,-0.0078125,0.037109375,19.875,-12.0,-30.75,19.875,-12.0,-30.75,0.031256819958576876,-0.6020801359412871,0.12950588864556303,0.7872424949893909,34.55139798925958,72.9524959458135,-158.64962717347618,0.534912109375,0.51556396484375,0.33624267578125,-0.5787353515625,33.830461678133204,73.03255853200376,-69.10378756407562,1.2250325816956396,,,,3,0,3,3
1788939804.8410473,771409686.0,-9.3828125,1.48828125,2.33984375,0.0078125,-0.009765625,0.033203125,19.875,-12.0,-30.75,19.875,-12.0,-30.75,0.031274371022972536,-0.6020646298810641,0.12972815998977422,0.7872170600723551,34.612032094148596,72.94534584486185,-158.6088980728221,0.534912109375,0.51556396484375,0.33624267578125,-0.5787353515625,33.830461678133204,73.03255853200376,-69.10378756407562,1.2336885721972481,,,,3,0,3,3
1788939804.849798,771416599.0,-9.421875,1.48828125,2.3046875,0.01953125,-0.017578125,0.05078125,20.0625,-10.6875,-31.25,20.0625,-10.6875,-31.25,0.03138895619010626,-0.6021218253561708,0.12997275556846682,0.7871284035460722,34.676886750556626,72.95088936053497,-158.573573493585,0.5350341796875,0.515625,0.33612060546875,-0.57867431640625,33.88718220198561,73.02454421598257,-69.05903330812865,0.9953137654166611,,,,3,0,3,3
1788939804.8520725,771417075.0,-9.421875,1.52734375,2.3046875,0.01953125,-0.017578125,0.05078125,20.0625,-10.6875,-31.25,20.0625,-10.6875,-31.25,0.03139438601009099,-0.602125310648474,0.12999316653005769,0.7871221502784792,34.68281666271483,72.95101624409743,-158.56977283737007,0.5350341796875,0.515625,0.33612060546875,-0.57867431640625,33.88718220198561,73.02454421598257,-69.05903330812865,0.9963273977231152,,,,3,0,3,3
1788939804.8568895,771422535.0,-9.421875,1.6015625,2.3046875,0.025390625,-0.017578125,0.05859375,20.0625,-10.6875,-31.25,20.0625,-10.6875,-31.25,0.031372028078089385,-0.6021396107377931,0.13032820071218795,0.7870566975345107,34.792191691878834,72.94298564536085,-158.48632926996996,0.53515625,0.5157470703125,0.33587646484375,-0.57861328125,33.97324145045262,73.00474938573394,-68.99030952390336,0.8439276358715665,,,,3,0,3,3
1788939804.8608246,771425011.0,-9.4609375,1.640625,2.3046875,0.025390625,-0.017578125,0.05859375,23.1875,-9.25,-35.75,23.1875,-9.25,-35.75,0.031329020997410424,-0.6021371642554115,0.13027576448511263,0.7870689633403257,34.784093965143676,72.94228729040198,-158.4865663154283,0.53515625,0.5157470703125,0.33587646484375,-0.57861328125,33.97324145045262,73.00474938573394,-68.99030952390336,0.8412260195678175,,,,3,0,3,3
1788939804.8608246,771429218.0,-9.421875,1.71875,2.265625,0.021484375,-0.025390625,0.05859375,23.1875,-9.25,-35.75,23.1875,-9.25,-35.75,0.031227267141179006,-0.602131153517364,0.13018468762264188,0.7870926748860881,34.77490478668529,72.93972732634244,-158.47989418802717,0.53515625,0.5157470703125,0.33587646484375,-0.57861328125,33.97324145045262,73.00474938573394,-68.99030952390336,0.837143387439524,,,,3,0,3,3
1788939804.8608246,771433000.0,-9.38671875,1.7578125,2.3046875,0.03125,-0.033203125,0.056640625,23.1875,-9.25,-35.75,23.1875,-9.25,-35.75,0.031138048753124183,-0.6020987529248363,0.13011664254392147,0.7871322461818614,34.76429832846161,72.93370926069267,-158.4776334847661,0.53533935546875,0.51580810546875,0.3355712890625,-0.57861328125,34.04075093924978,72.97867588588662,-68.94953330369971,0.0,,,,3,0,3,3
1788939804.8756618,771440883.0,-9.34375,1.79296875,2.37890625,0.029296875,-0.03515625,0.046875,23.875,-10.6875,-35.8125,23.875,-10.6875,-35.8125,0.03081592892526351,-0.6019077370791174,0.13009750108124662,0.7872941602610706,34.77798017507302,72.89649852256304,-158.43645030460982,0.53533935546875,0.51580810546875,0.3355712890625,-0.57861328125,34.04075093924978,72.97867588588662,-68.94953330369971,0.0,,,,3,0,3,3
1788939804.8825176,771445519.0,-9.31640625,1.83203125,2.33984375,0.021484375,-0.037109375,0.037109375,23.375,-10.375,-36.875,23.375,-10.375,-36.875,0.030637590920117613,-0.6018376030865644,0.13002397723183914,0.7873668794649955,34.77451156903972,72.88212490896522,-158.41939378925233,0.53546142578125,0.515869140625,0.33526611328125,-0.57861328125,34.09786306254315,72.9446006305907,-68.9040337398885,0.2914148319725251,,,,3,0,2,3
1788939804.8851964,771448749.0,-9.2734375,1.79296875,2.33984375,0.0234375,-0.037109375,0.03515625,23.375,-10.375,-36.875,23.375,-10.375,-36.875,0.030535318570017407,-0.6017871666593989,0.12996093925512442,0.7874198083816575,34.76390136802273,72.87314063522396,-158.41652435819069,0.53546142578125,0.515869140625,0.33526611328125,-0.57861328125,34.09786306254315,72.9446006305907,-68.9040337398885,0.28848188573776173,,,,3,0,2,3
1788939804.891895,771456885.0,-9.2734375,1.7578125,2.37890625,0.017578125,-0.033203125,0.029296875,22.875,-10.75,-36.3125,22.875,-10.75,-36.3125,0.030263131134502415,-0.6015978464785513,0.12984018134452519,0.7875948840074612,34.73750276885747,72.84095947594578,-158.4110696020804,0.5355224609375,0.515869140625,0.33502197265625,-0.57867431640625,34.11126979692216,72.91384267932361,-68.89741629543599,0.659311518221165,,,,3,0,2,3
1788939804.892018,771460414.0,-9.2734375,1.79296875,2.41796875,0.01953125,-0.03515625,0.01953125,22.875,-10.75,-36.3125,22.875,-10.75,-36.3125,0.03015874182737628,-0.6014917277109293,0.12981652729478,0.787683833163938,34.726703184736856,72.8237441765234,-158.41160646463388,0.5355224609375,0.515869140625,0.33502197265625,-0.57867431640625,34.11126979692216,72.91384267932361,-68.89741629543599,0.6616762977804238,,,,3,0,2,3
1788939804.8939712,771464074.0,-9.2734375,1.79296875,2.41796875,0.005859375,-0.03125,0.017578125,20.3125,-11.4375,-29.875,20.3125,-11.4375,-29.875,0.030124382102853425,-0.6014132506813553,0.13002087639332968,0.7877113654186519,34.77734544671396,72.80684887321411,-158.37528084143023,0.53564453125,0.515869140625,0.3348388671875,-0.57867431640625,34.13895362921046,72.89155418510258,-68.87600071112614,0.5784888897982776,,,,3,0,3,3
1788939804.8939712,771468280.0,-9.2734375,1.7578125,2.45703125,0.0,-0.029296875,0.013671875,20.3125,-11.4375,-29.875,20.3125,-11.4375,-29.875,0.03009149782582285,-0.601315334213719,0.13024069971293623,0.7877510588608098,34.82791741549735,72.78711896409683,-158.34047442123156,0.53564453125,0.515869140625,0.3348388671875,-0.57867431640625,34.13895362921046,72.89155418510258,-68.87600071112614,0.5948003453728107,,,,3,0,3,3
1788939804.9082735,771472539.0,-9.2734375,1.71875,2.41796875,0.001953125,-0.02734375,0.01171875,20.3125,-11.4375,-29.875,20.3125,-11.4375,-29.875,0.030073379266592537,-0.6012327438971024,0.1304659763010878,0.7877775120890751,34.88064929787137,72.7698021430624,-158.30513533799532,0.53570556640625,0.51580810546875,0.334716796875,-0.5787353515625,34.12313696649195,72.87255788716247,-68.89320723575504,0.6958163986158,,,,3,0,3,3
1788939804.9102266,771476816.0,-9.31640625,1.7578125,2.45703125,0.001953125,-0.02734375,0.01171875,20.3125,-11.4375,-29.875,20.3125,-11.4375,-29.875,0.030048300951478212,-0.6011403747060058,0.1306912199664861,0.7878116237603531,34.93243065062174,72.75094738321283,-158.27019827209776,0.53570556640625,0.51580810546875,0.334716796875,-0.5787353515625,34.12313696649195,72.87255788716247,-68.89320723575504,0.7112457501534961,,,,3,0,3,3
1788939804.9082735,771479946.0,-9.3125,1.6796875,2.45703125,-0.005859375,-0.0234375,0.0078125,20.3125,-11.4375,-29.875,20.3125,-11.4375,-29.875,0.030043286371983353,-0.6010776694334604,0.13084304123725873,0.7878344590154683,34.964905359834134,72.73867483325581,-158.25005120438593,0.53570556640625,0.51580810546875,0.334716796875,-0.5787353515625,34.12313696649195,72.87255788716247,-68.89320723575504,0.7216540009252741,,,,3,0,3,3
1788939804.9102266,771483705.0,-9.3125,1.6796875,2.41796875,-0.00390625,-0.021484375,0.0078125,19.5625,-11.5,-30.375,19.5625,-11.5,-30.375,0.030043523961728498,-0.6010184867450145,0.13102857482357763,0.7878487658417676,35.00725348888991,72.72615835386516,-158.22325056506017,0.5357666015625,0.5157470703125,0.33465576171875,-0.5787353515625,34.11147098871513,72.85404826205779,-68.89060149947487,1.0204797988061576,,,,3,0,3,3
1788939804.9102266,771487811.0,-9.38671875,1.6796875,2.41796875,-0.001953125,-0.009765625,0.0078125,19.5625,-11.5,-30.375,19.5625,-11.5,-30.375,0.03004791349614855,-0.6009804854482782,0.13123370707018947,0.7878434445583055,35.0594122490172,72.71597390545236,-158.1885587123279,0.5357666015625,0.5157470703125,0.33465576171875,-0.5787353515625,34.11147098871513,72.85404826205779,-68.89060149947487,1.0309508740562634,,,,3,0,3,3
1788939804.927278,771491841.0,-9.3828125,1.6796875,2.53125,-0.001953125,-0.009765625,0.0078125,19.5625,-11.5,-30.375,19.5625,-11.5,-30.375,0.030054597934661503,-0.6008998469301122,0.13142845621809687,0.7878722332957808,35.09837096296533,72.70074528790717,-158.16648962578185,0.5357666015625,0.5157470703125,0.33465576171875,-0.5787353515625,34.11147098871513,72.85404826205779,-68.89060149947487,1.041329681132707,,,,3,0,3,3
1788939804.9292312,771495824.0,-9.42578125,1.71875,2.45703125,0.005859375,-0.015625,0.00390625,19.625,-10.8125,-32.0,19.625,-10.8125,-32.0,0.030052795839040844,-0.6008008815175875,0.13162238004441443,0.787915401106864,35.13452905151823,72.6828559318366,-158.1465011637687,0.53582763671875,0.51568603515625,0.3345947265625,-0.57879638671875,34.09325173682929,72.84778088422061,-68.91818671534135,0.8268231332026433,,,,3,0,3,3
1788939804.9292312,771500130.0,-9.3828125,1.7578125,2.41796875,0.00390625,-0.013671875,-0.005859375,19.625,-10.8125,-32.0,19.625,-10.8125,-32.0,0.03003113054076645,-0.6007337627085264,0.13182685470762318,0.787933219199695,35.1847489864046,72.66789016025126,-158.11163182168968,0.53582763671875,0.51568603515625,0.3345947265625,-0.57879638671875,34.09325173682929,72.84778088422061,-68.91818671534135,0.8425453756526665,,,,3,0,3,3
1788939804.9397523,771503513.0,-9.42578125,1.7578125,2.41796875,0.005859375,-0.005859375,-0.0078125,19.625,-10.8125,-32.0,19.625,-10.8125,-32.0,0.030021157534789632,-0.6007001189534328,0.13198994563147287,0.7879319459457167,35.22785135395763,72.65877915563509,-158.08132674530356,0.53582763671875,0.51568603515625,0.33453369140625,-0.578857421875,34.089155010953995,72.84730321264615,-68.93796016727039,0.5799060129798463,,,,3,0,3,3
1788939804.9438806,771507819.0,-9.42578125,1.71875,2.41796875,0.005859375,0.0,-0.01171875,19.625,-10.8125,-32.0,19.625,-10.8125,-32.0,0.030046647668859842,-0.6006678068150552,0.13219530237615698,0.7879211806072556,35.27711482240977,72.65017270753745,-158.05126660304822,0.53582763671875,0.51568603515625,0.33453369140625,-0.578857421875,34.089155010953995,72.84730321264615,-68.93796016727039,0.6014939379292776,,,,3,0,3,3
1788939804.9460056,771511196.0,-9.42578125,1.7578125,2.45703125,0.005859375,0.0,-0.01171875,19.625,-10.8125,-32.0,19.625,-10.8125,-32.0,0.030043029284710334,-0.6006099454793653,0.132343595053257,0.7879405324204686,35.309059622202156,72.63865195378906,-158.03146657228802,0.53582763671875,0.51568603515625,0.33453369140625,-0.578857421875,34.089155010953995,72.84730321264615,-68.93796016727039,0.618328406284951,,,,3,0,3,3
1788939804.9520056,771514855.0,-9.46484375,1.6796875,2.45703125,0.005859375,-0.00390625,-0.015625,20.125,-11.625,-30.9375,20.125,-11.625,-30.9375,0.030100198498170947,-0.6005826093970477,0.13251142296030233,0.7879309805593633,35.342168959801576,72.63302371802119,-158.01702618026155,0.53582763671875,0.515625,0.33453369140625,-0.578857421875,34.06493529484911,72.83358073051869,-68.94081002068882,1.1112133366345551,,,,3,0,3,3
1788939804.9560053,771519261.0,-9.421875,1.640625,2.41796875,0.001953125,-0.001953125,-0.015625,20.125,-11.625,-30.9375,20.125,-11.625,-30.9375,0.030178673802604455,-0.6005695933149388,0.1327008099473339,0.787906026295247,35.38090051031614,72.62951970591047,-158.0004638629075,0.53582763671875,0.515625,0.33453369140625,-0.578857421875,34.06493529484911,72.83358073051869,-68.94081002068882,1.1217581938713177,,,,3,0,3,3
1788939804.9621754,771527397.0,-9.38671875,1.56640625,2.45703125,-0.00390625,-0.009765625,-0.015625,23.0625,-10.0625,-34.8125,23.0625,-10.0625,-34.8125,0.030276432785852177,-0.6005446200564867,0.1322723858223294,0.7879933457129208,35.22873980159635,72.64209993154384,-158.12511011395566,0.5357666015625,0.515625,0.3345947265625,-0.57891845703125,34.045747329369554,72.85057624536744,-68.97648178678918,0.7737490175363199,,,,3,0,3,3
1788939804.966091,771530727.0,-9.3125,1.56640625,2.41796875,0.001953125,-0.009765625,-0.0078125,23.0625,-10.0625,-34.8125,23.0625,-10.0625,-34.8125,0.03030918546148091,-0.600537316007454,0.13211007861765522,0.7880248806267871,35.17235051402106,72.64693838340665,-158.170721364648,0.5357666015625,0.515625,0.3345947265625,-0.57891845703125,34.045747329369554,72.85057624536744,-68.97648178678918,0.7585469146140451,,,,3,0,3,3
1788939804.9710917,771535163.0,-9.31640625,1.6015625,2.37890625,0.0078125,-0.005859375,-0.009765625,24.1875,-13.1875,-36.375,24.1875,-13.1875,-36.375,0.03040792441173731,-0.6005269481152272,0.1323079682441677,0.7879957768030749,35.2104113547669,72.64440822436231,-158.1571854521702,0.5357666015625,0.51556396484375,0.3345947265625,-0.5789794921875,34.014956250906366,72.84907355715606,-69.00951429424406,0.7096337108515296,,,,3,0,2,3
1788939804.9743767,771539369.0,-9.31640625,1.6015625,2.37890625,-0.001953125,-0.00390625,-0.0078125,24.1875,-13.1875,-36.375,24.1875,-13.1875,-36.375,0.03048810554129993,-0.60052023180136,0.13248113435030398,0.7879687022077716,35.24543003625024,72.64223286879697,-158.14311412530444,0.5357666015625,0.51556396484375,0.3345947265625,-0.5789794921875,34.014956250906366,72.84907355715606,-69.00951429424406,0.7241916803091494,,,,3,0,2,3
1788939804.9830163,771546682.0,-9.3125,1.6796875,2.33984375,0.0,-0.001953125,-0.013671875,23.1875,-10.25,-36.1875,23.1875,-10.25,-36.1875,0.030497492334749896,-0.6005803392719072,0.13209650437852957,0.7879871017804198,35.1421165143804,72.66065095811157,-158.21513040637348,0.53570556640625,0.51556396484375,0.33453369140625,-0.5789794921875,34.007328407631455,72.82844404857536,-68.99416322903856,1.364056366537244,,,,3,0,2,3
1788939804.9849694,771550358.0,-9.27734375,1.6796875,2.33984375,0.0,-0.001953125,-0.013671875,23.1875,-10.25,-36.1875,23.1875,-10.25,-36.1875,0.030497795127599064,-0.600606993105977,0.13190392693407546,0.7879990345069732,35.090395952733594,72.66924134300346,-158.25083047211442,0.53570556640625,0.51556396484375,0.33453369140625,-0.5789794921875,34.007328407631455,72.82844404857536,-68.99416322903856,1.354817733251618,,,,3,0,2,3
1788939804.9909692,771554994.0,-9.3125,1.640625,2.37890625,0.0,0.001953125,-0.009765625,22.9375,-10.6875,-35.9375,22.9375,-10.6875,-35.9375,0.030513976689856902,-0.600632062253853,0.13166723501118247,0.7880188844461563,35.02203562752736,72.67947253830748,-158.30081179530373,0.53570556640625,0.51556396484375,0.3345947265625,-0.57904052734375,33.99824266312227,72.85336625667297,-69.03478841884083,0.5907595733699824,,,,3,0,2,3
1788939804.9943666,771558124.0,-9.3125,1.640625,2.33984375,-0.0078125,-0.001953125,-0.0078125,22.9375,-10.6875,-35.9375,22.9375,-10.6875,-35.9375,0.030514026770961798,-0.6006637513734124,0.13149770613987005,0.7880230359806703,34.978317259897096,72.68805746583318,-158.33039235013206,0.53570556640625,0.51556396484375,0.3345947265625,-0.57904052734375,33.99824266312227,72.85336625667297,-69.03478841884083,0.5731587044812332,,,,3,0,2,3
1788939804.9924135,771562383.0,-9.3125,1.640625,2.33984375,-0.0078125,0.0,-0.009765625,22.9375,-10.6875,-35.9375,22.9375,-10.6875,-35.9375,0.030515502302664376,-0.6007110981376089,0.13126471697604197,0.7880257323023936,34.91876314235794,72.70038998519703,-158.37062399316628,0.53570556640625,0.51556396484375,0.3345947265625,-0.57904052734375,33.99824266312227,72.85336625667297,-69.03478841884083,0.5491340334060619,,,,3,0,2,3
1788939804.9943666,771566460.0,-9.34375,1.52734375,2.33984375,-0.0078125,0.0,-0.009765625,22.9375,-10.6875,-35.9375,22.9375,-10.6875,-35.9375,0.030562092260134927,-0.6007576119044729,0.13104552536957628,0.7880249491837993,34.85445545394142,72.71411389512139,-158.4204467187285,0.53570556640625,0.51556396484375,0.3345947265625,-0.57904052734375,33.99824266312227,72.85336625667297,-69.03478841884083,0.5248751040887198,,,,3,0,2,3
1788939805.0041263,771570766.0,-9.3828125,1.640625,2.3046875,-0.005859375,-0.001953125,-0.0078125,22.9375,-10.6875,-35.9375,22.9375,-10.6875,-35.9375,0.030565435012467806,-0.6008368180286411,0.13082940868124107,0.7880003414389064,34.80659862003824,72.73011142674012,-158.45046480444697,0.53570556640625,0.51556396484375,0.3345947265625,-0.57904052734375,33.99824266312227,72.85336625667297,-69.03478841884083,0.5029443491450843,,,,3,0,2,3
1788939805.0111477,771574525.0,-9.38671875,1.6015625,2.3046875,-0.013671875,-0.001953125,-0.009765625,21.125,-10.6875,-30.6875,21.125,-10.6875,-30.6875,0.030608980113654687,-0.6009055828798687,0.13089857993866982,0.787934726084748,34.83440234991868,72.73882637025389,-158.43180736730864,0.53570556640625,0.5155029296875,0.33465576171875,-0.57904052734375,33.97152110187538,72.852338230339,-69.04807707070484,0.7461774495021174,,,,3,0,3,3
1788939805.01414,771578432.0,-9.46484375,1.6015625,2.265625,-0.0078125,-0.009765625,-0.015625,21.125,-10.6875,-30.6875,21.125,-10.6875,-30.6875,0.03066584748747183,-0.6009817216475575,0.13094360763631666,0.7878669606365019,34.85406289951007,72.74967807290139,-158.42036249511017,0.53570556640625,0.5155029296875,0.33465576171875,-0.57904052734375,33.97152110187538,72.852338230339,-69.04807707070484,0.7479093029319249,,,,3,0,3,3
1788939805.0162446,771581685.0,-9.3828125,1.56640625,2.265625,-0.0078125,-0.009765625,-0.015625,21.125,-10.6875,-30.6875,21.125,-10.6875,-30.6875,0.030727191152338938,-0.6010450168662668,0.13097462278006783,0.7878111294033207,34.8657876507014,72.75945589978691,-158.41608551104727,0.53570556640625,0.5155029296875,0.33465576171875,-0.57904052734375,33.97152110187538,72.852338230339,-69.04807707070484,0.7487206330619057,,,,3,0,3,3
1788939805.0222316,771585668.0,-9.3828125,1.56640625,2.3046875,-0.001953125,-0.01171875,-0.005859375,21.5,-9.625,-29.875,21.5,-9.625,-29.875,0.030794740725494468,-0.6011143368016569,0.1308086201664589,0.787783182687534,34.8183551005615,72.77552661295944,-158.45511160479094,0.53570556640625,0.51544189453125,0.334716796875,-0.57904052734375,33.94479563081886,72.85131026378198,-69.06137395523434,0.9163701330251749,,,,3,0,3,3
1788939805.0206916,771589774.0,-9.3828125,1.56640625,2.3046875,-0.0078125,-0.021484375,-0.001953125,21.5,-9.625,-29.875,21.5,-9.625,-29.875,0.030852968804566762,-0.6011704543429631,0.13063367919659583,0.7877671108903828,34.7669948764576,72.78976003540097,-158.4965918971091,0.53570556640625,0.51544189453125,0.334716796875,-0.57904052734375,33.94479563081886,72.85131026378198,-69.06137395523434,0.9056769990274661,,,,3,0,3,3
1788939805.0276577,771593357.0,-9.34765625,1.56640625,2.37890625,-0.00390625,-0.025390625,-0.00390625,21.5,-9.625,-29.875,21.5,-9.625,-29.875,0.030916431437611597,-0.6011541431232886,0.1304562414458155,0.7878064734061908,34.69759663205472,72.79503500881799,-158.5564941656071,0.5357666015625,0.515380859375,0.33465576171875,-0.5791015625,33.92669376967386,72.84503227791758,-69.08884445791243,0.6144578837915895,,,,3,0,3,3
1788939805.0339782,771597463.0,-9.34375,1.6015625,2.45703125,-0.0078125,-0.0234375,0.001953125,21.5,-9.625,-29.875,21.5,-9.625,-29.875,0.030941435291286578,-0.6010600043500318,0.1302994077934483,0.7879032701299897,34.62445115607299,72.78822830909276,-158.61888308462716,0.5357666015625,0.515380859375,0.33465576171875,-0.5791015625,33.92669376967386,72.84503227791758,-69.08884445791243,0.6006837737634486,,,,3,0,3,3
1788939805.0339782,771602016.0,-9.3828125,1.6015625,2.37890625,-0.0078125,-0.0234375,0.001953125,21.5,-9.625,-29.875,21.5,-9.625,-29.875,0.030988795137374323,-0.6010592412538445,0.1300700245786567,0.7879398909722709,34.54593228738268,72.79615831467947,-158.682245738346,0.5357666015625,0.515380859375,0.33465576171875,-0.5791015625,33.92669376967386,72.84503227791758,-69.08884445791243,0.5822246779392457,,,,3,0,3,3
1788939805.0339782,771605775.0,-9.38671875,1.640625,2.41796875,0.001953125,-0.02734375,0.001953125,20.0625,-9.25,-31.0625,20.0625,-9.25,-31.0625,0.030985570786127483,-0.6010158520470593,0.129899193591687,0.7880012940950254,34.48535856220066,72.79499740362988,-158.72848045242114,0.53582763671875,0.5152587890625,0.3345947265625,-0.57916259765625,33.884464761637254,72.82502764997712,-69.11910810195883,0.854646835908512,,,,3,0,3,3
1788939805.04501,771608905.0,-9.34765625,1.640625,2.37890625,-0.001953125,-0.029296875,0.00390625,20.0625,-9.25,-31.0625,20.0625,-9.25,-31.0625,0.030971382915495164,-0.6009942261701181,0.12974824663240728,0.7880432133114901,34.43774884028814,72.79563042141181,-158.76245584451797,0.53582763671875,0.5152587890625,0.3345947265625,-0.57916259765625,33.884464761637254,72.82502764997712,-69.11910810195883,0.8476989017383849,,,,3,0,3,3
1788939805.052225,771617241.0,-9.38671875,1.640625,2.37890625,-0.00390625,-0.025390625,0.001953125,21.5,-9.625,-29.875,21.5,-9.625,-29.875,0.030964255880208486,-0.6010262082146459,0.12933739317165938,0.7880866390343575,34.32215004799752,72.81022541429301,-158.8433183821996,0.535888671875,0.51519775390625,0.33453369140625,-0.5792236328125,33.86643518086586,72.81874597270253,-69.14650800381732,0.5154736245164058,,,,3,0,3,3
1788939805.0552235,771621347.0,-9.38671875,1.6796875,2.41796875,-0.017578125,-0.02734375,-0.001953125,21.5,-9.625,-29.875,21.5,-9.625,-29.875,0.03084997566279131,-0.6009188526252058,0.1292106175973287,0.7881937755789042,34.28230208580508,72.7951422294539,-158.86354401702854,0.535888671875,0.51519775390625,0.33453369140625,-0.5792236328125,33.86643518086586,72.81874597270253,-69.14650800381732,0.5100189811420526,,,,3,0,3,3
1788939805.0613086,771625007.0,-9.3828125,1.6015625,2.41796875,-0.0234375,-0.03515625,0.005859375,23.4375,-11.375,-37.0,23.4375,-11.375,-37.0,0.030842234870215545,-0.6008653913334012,0.12901100133106652,0.7882675304625483,34.21173992061085,72.79321384540633,-158.91703447116996,0.5360107421875,0.51507568359375,0.33447265625,-0.5792236328125,33.84102082510167,72.79448429092105,-69.15144430464147,0.847228717423581,,,,3,0,2,3
1788939805.0613086,771629113.0,-9.34765625,1.640625,2.41796875,-0.01953125,-0.033203125,0.005859375,23.4375,-11.375,-37.0,23.4375,-11.375,-37.0,0.030785573277482374,-0.6007833441153126,0.12881340639759573,0.7883645909373698,34.14502495686189,72.78556270491544,-158.96290869626458,0.5360107421875,0.51507568359375,0.33447265625,-0.5792236328125,33.84102082510167,72.79448429092105,-69.15144430464147,0.8413115952195477,,,,3,0,2,3
1788939805.072865,771637502.0,-9.38671875,1.56640625,2.41796875,-0.03125,-0.02734375,0.005859375,23.0625,-9.875,-36.875,23.0625,-9.875,-36.875,0.030705855290392246,-0.600723505345056,0.12831810725340073,0.7884940608068893,33.997834420842764,72.78754663729244,-159.06263251376336,0.5361328125,0.51495361328125,0.33441162109375,-0.57928466796875,33.80909469536028,72.7824134750526,-69.18645605736867,0.47799655981481864,,,,3,0,2,3
1788939805.0748181,771640879.0,-9.38671875,1.56640625,2.45703125,-0.03125,-0.02734375,0.005859375,23.0625,-9.875,-36.875,23.0625,-9.875,-36.875,0.030672948875775295,-0.6006889681404481,0.12812245285348436,0.7885534673289024,33.9375891170726,72.78686071580614,-159.10403670201597,0.5361328125,0.51495361328125,0.33441162109375,-0.57928466796875,33.80909469536028,72.7824134750526,-69.18645605736867,0.4709152151976117,,,,3,0,2,3
1788939805.0814085,771644338.0,-9.3828125,1.52734375,2.45703125,-0.02734375,-0.015625,0.0078125,22.9375,-10.5,-37.625,22.9375,-10.5,-37.625,0.030651134886817477,-0.600667307339534,0.12793050775380824,0.7886019775586901,33.879124637364384,72.78816944803174,-159.1448468246057,0.5362548828125,0.51483154296875,0.33441162109375,-0.57928466796875,33.78120340396872,72.77084519836313,-69.20178517200635,0.38468045958957137,,,,3,0,2,3
1788939805.0850885,771648744.0,-9.34375,1.48828125,2.41796875,-0.02734375,-0.021484375,0.015625,22.9375,-10.5,-37.625,22.9375,-10.5,-37.625,0.0306215056718361,-0.6006424233477567,0.12769119051332822,0.7886608666154374,33.80716590513362,72.78996214056099,-159.1945912878185,0.5362548828125,0.51483154296875,0.33441162109375,-0.57928466796875,33.78120340396872,72.77084519836313,-69.20178517200635,0.376206228935847,,,,3,0,2,3
1788939805.087747,771652227.0,-9.34765625,1.44921875,2.41796875,-0.01953125,-0.029296875,0.017578125,22.9375,-10.5,-37.625,22.9375,-10.5,-37.625,0.030613616191611338,-0.6006131442601914,0.12751485910806637,0.7887119994980482,33.74904674364918,72.79043242244893,-159.23750768387347,0.53643798828125,0.51470947265625,0.3343505859375,-0.5792236328125,33.77258835856255,72.74237900674738,-69.1814744970466,0.8177961308550504,,,,3,0,2,3
1788939805.0916822,771656180.0,-9.34765625,1.44921875,2.41796875,-0.01953125,-0.029296875,0.017578125,23.1875,-9.8125,-36.1875,23.1875,-9.8125,-36.1875,0.030598106733038512,-0.600580404844266,0.12731391545419457,0.7887699918944516,33.68422697663439,72.79077362180489,-159.28446868485975,0.53643798828125,0.51470947265625,0.3343505859375,-0.5792236328125,33.77258835856255,72.74237900674738,-69.1814744970466,0.8152905337398899,,,,3,0,2,3
1788939805.0933373,771660286.0,-9.31640625,1.52734375,2.37890625,-0.015625,-0.021484375,0.015625,23.1875,-9.8125,-36.1875,23.1875,-9.8125,-36.1875,0.030567157818043093,-0.6005695111501759,0.1271064918562442,0.7888129378171762,33.6251989404775,72.79345358087352,-159.3237902839849,0.53643798828125,0.51470947265625,0.3343505859375,-0.5792236328125,33.77258835856255,72.74237900674738,-69.1814744970466,0.8138887272026515,,,,3,0,2,3
1788939805.0981917,771667775.0,-9.31640625,1.48828125,2.41796875,-0.009765625,-0.02734375,0.021484375,19.75,-10.6875,-31.25,19.75,-10.6875,-31.25,0.030702219365017384,-0.6004576032873661,0.12742135736701438,0.7888420869015559,33.66977225189076,72.77644161321788,-159.31661919801638,0.53656005859375,0.5146484375,0.33428955078125,-0.5792236328125,33.7713457126157,72.73184192703046,-69.18355902215544,0.549223307700906,,,,3,0,3,3
1788939805.1082518,771672535.0,-9.27734375,1.52734375,2.53125,-0.005859375,-0.0234375,0.0234375,19.75,-10.6875,-31.25,19.75,-10.6875,-31.25,0.030731197197527368,-0.6002775401418636,0.12760114945816822,0.788948930525287,33.67945571638507,72.74987911507692,-159.32461437689093,0.53668212890625,0.51458740234375,0.33416748046875,-0.5792236328125,33.77269104261843,72.70867221241802,-69.17524234976283,0.690852774761596,,,,3,0,3,3
1788939805.112187,771676288.0,-9.27734375,1.52734375,2.53125,-0.005859375,-0.0234375,0.0234375,20.0625,-9.75,-31.125,20.0625,-9.75,-31.125,0.03073376719546431,-0.6001586387148374,0.12752881930031507,0.7890509769196131,33.631464644403046,72.73656862957702,-159.36708133307422,0.53668212890625,0.51458740234375,0.33416748046875,-0.5792236328125,33.77269104261843,72.70867221241802,-69.17524234976283,0.6891452256495318,,,,3,0,3,3
1788939805.1171188,771680194.0,-9.3125,1.52734375,2.53125,-0.005859375,-0.017578125,0.029296875,20.0625,-9.75,-31.125,20.0625,-9.75,-31.125,0.03073160524603877,-0.6000466130867642,0.12745381728633115,0.7891483732614845,33.58514136998724,72.72401122141724,-159.4072567523175,0.53668212890625,0.51458740234375,0.33416748046875,-0.5792236328125,33.77269104261843,72.70867221241802,-69.17524234976283,0.6880374037967774,,,,3,0,3,3
1788939805.1241112,771687107.0,-9.3125,1.56640625,2.49609375,-0.021484375,-0.013671875,0.0390625,20.5,-11.625,-30.9375,20.5,-11.625,-30.9375,0.030635543258104275,-0.5999286110860186,0.12780979575545487,0.789184250475534,33.68562055983892,72.6958904172096,-159.32870537631467,0.536865234375,0.5145263671875,0.3341064453125,-0.57916259765625,33.788032528983194,72.69389823821294,-69.15223565816551,0.4336234296964631,,,,3,0,3,3
1788939805.1261237,771687383.0,-9.3125,1.56640625,2.49609375,-0.021484375,-0.013671875,0.0390625,20.5,-11.625,-30.9375,20.5,-11.625,-30.9375,0.030631894217657586,-0.5999238926104679,0.12782397753781052,0.7891856821421405,33.689579825214196,72.69477443603374,-159.325634356053,0.536865234375,0.5145263671875,0.3341064453125,-0.57916259765625,33.788032528983194,72.69389823821294,-69.15223565816551,0.4342230216931189,,,,3,0,3,3
1788939805.1257367,771691866.0,-9.34765625,1.56640625,2.45703125,-0.0234375,-0.015625,0.046875,20.5,-11.625,-30.9375,20.5,-11.625,-30.9375,0.03055782425337646,-0.5998633559207809,0.12806011545592597,0.7891962876431778,33.76190836249571,72.67796128356886,-159.26696765273098,0.53704833984375,0.5145263671875,0.333984375,-0.57904052734375,33.83634368946483,72.6680348286,-69.0862319006938,0.7317798712308182,,,,3,0,3,3
1788939805.1276898,771697449.0,-9.34765625,1.56640625,2.45703125,-0.013671875,-0.015625,0.046875,20.5625,-10.0625,-30.0625,20.5625,-10.0625,-30.0625,0.030598936556173986,-0.5997164861705042,0.12830585513662712,0.7892663991546792,33.79613276897129,72.65446979656626,-159.2568172552761,0.53704833984375,0.5145263671875,0.333984375,-0.57904052734375,33.83634368946483,72.6680348286,-69.0862319006938,0.7378363269023624,,,,3,0,3,3
1788939805.1276898,771699225.0,-9.34765625,1.6015625,2.53125,-0.013671875,-0.015625,0.046875,20.5625,-10.0625,-30.0625,20.5625,-10.0625,-30.0625,0.03057432153688733,-0.5996481192928251,0.1283569976873743,0.7893109811955108,33.801508961248764,72.64339558741472,-159.25382294385682,0.53704833984375,0.5145263671875,0.333984375,-0.57904052734375,33.83634368946483,72.6680348286,-69.0862319006938,0.7399295638016962,,,,3,0,3,3
1788939805.125433,771703385.0,-9.34375,1.48828125,2.5703125,-0.021484375,-0.015625,0.044921875,20.5625,-10.0625,-30.0625,20.5625,-10.0625,-30.0625,0.030574125964770313,-0.5995115756598346,0.1283354173616042,0.789418212433673,33.76569463593973,72.62643528540768,-159.28813704373025,0.5372314453125,0.5145263671875,0.3338623046875,-0.57891845703125,33.88453363137658,72.64219160429124,-69.02039924718007,0.9401040758349343,,,,3,0,3,3
1788939805.1468828,771710791.0,-9.42578125,1.640625,2.609375,-0.021484375,-0.013671875,0.05859375,19.8125,-11.625,-31.0,19.8125,-11.625,-31.0,0.030397813156023353,-0.5993295604567366,0.1287475579480566,0.789496116038881,33.883963943882705,72.58538321018382,-159.1900441085232,0.5372314453125,0.5145263671875,0.3338623046875,-0.57891845703125,33.88453363137658,72.64219160429124,-69.02039924718007,0.9525328583663001,,,,3,0,3,3
1788939805.1515298,771714650.0,-9.3828125,1.6015625,2.49609375,-0.013671875,-0.01171875,0.056640625,20.1875,-13.0,-30.8125,20.1875,-13.0,-30.8125,0.030322397617236162,-0.5992835281415518,0.12897822272844442,0.7894963097841357,33.95751865983264,72.57047926463503,-159.1295609738784,0.5374755859375,0.5145263671875,0.333740234375,-0.57879638671875,33.942600343967996,72.62418297901642,-68.95960475821417,0.6256568732462597,,,,3,0,3,3
1788939805.1565325,771718957.0,-9.3828125,1.52734375,2.37890625,-0.021484375,-0.01171875,0.0546875,20.1875,-13.0,-30.8125,20.1875,-13.0,-30.8125,0.030244649881983648,-0.5992620012757479,0.12920640181134213,0.7894783218755711,34.0359613600523,72.558661247987,-159.06373886655854,0.5374755859375,0.5145263671875,0.333740234375,-0.57879638671875,33.942600343967996,72.62418297901642,-68.95960475821417,0.6369410989085637,,,,3,0,3,3
1788939805.1620991,771727193.0,-9.3828125,1.71875,2.49609375,0.0,-0.017578125,0.05859375,23.5625,-9.75,-35.75,23.5625,-9.75,-35.75,0.029991189316900913,-0.5991538050273582,0.1289841375331634,0.7896064454837121,33.99476888619325,72.54029358114994,-159.06600048322983,0.5377197265625,0.5145263671875,0.3336181640625,-0.57867431640625,34.00050867537866,72.60616957616003,-68.8989935345718,0.0,,,,3,0,3,3
1788939805.1604724,771730722.0,-9.3828125,1.71875,2.49609375,-0.00390625,-0.0234375,0.0703125,23.5625,-9.75,-35.75,23.5625,-9.75,-35.75,0.029863002027352818,-0.5990978712395181,0.1288949687908495,0.7896683030276688,33.980633061129964,72.53025019135337,-159.0623779972331,0.5377197265625,0.5145263671875,0.3336181640625,-0.57867431640625,34.00050867537866,72.60616957616003,-68.8989935345718,0.0,,,,3,0,3,3
1788939805.1624255,771733982.0,-9.34375,1.7578125,2.45703125,-0.001953125,-0.01953125,0.0625,23.5625,-9.25,-35.75,23.5625,-9.25,-35.75,0.02974677914515321,-0.5990642848103351,0.12880432897583596,0.7897129583793441,33.968589523218355,72.52359145630291,-159.05746959739935,0.53790283203125,0.51458740234375,0.3333740234375,-0.57855224609375,34.07710991441739,72.56874472096938,-68.81051210267634,0.6567175443278361,,,,3,0,3,3
1788939805.1724224,771738588.0,-9.2734375,1.79296875,2.41796875,0.005859375,-0.009765625,0.0546875,23.5625,-9.25,-35.75,23.5625,-9.25,-35.75,0.02958214480791012,-0.5990428440996848,0.1286849479047391,0.789754868186502,33.95984615269353,72.51727240588828,-159.0428891090488,0.53790283203125,0.51458740234375,0.3333740234375,-0.57855224609375,34.07710991441739,72.56874472096938,-68.81051210267634,0.6558507240281409,,,,3,0,3,3
1788939805.17703,771742071.0,-9.2734375,1.83203125,2.41796875,0.00390625,-0.013671875,0.056640625,23.5625,-9.25,-35.75,23.5625,-9.25,-35.75,0.029439681578947795,-0.5990194317099198,0.12860031593408372,0.789791734778295,33.956802887266306,72.51070114045548,-159.02730962007854,0.5380859375,0.5146484375,0.33319091796875,-0.57843017578125,34.151026447009514,72.54389920441339,-68.73249393063485,0.6813567471856243,,,,3,0,3,3
1788939805.1809652,771746024.0,-9.2734375,1.87109375,2.41796875,0.00390625,-0.013671875,0.056640625,23.5,-9.3125,-36.0625,23.5,-9.3125,-36.0625,0.029260076471180594,-0.5989909242310447,0.12851455723475594,0.7898339883750851,33.959418033378775,72.50200498058102,-159.00295139775892,0.5380859375,0.5146484375,0.33319091796875,-0.57843017578125,34.151026447009514,72.54389920441339,-68.73249393063485,0.6827092976252536,,,,3,0,3,3
1788939805.1865103,771750330.0,-9.234375,1.87109375,2.41796875,0.001953125,-0.01171875,0.052734375,23.5,-9.3125,-36.0625,23.5,-9.3125,-36.0625,0.029065795000886088,-0.5989596865721469,0.12841648508966277,0.7898808009944149,33.96057411119678,72.49268820573245,-158.97783621803026,0.5380859375,0.5146484375,0.33319091796875,-0.57843017578125,34.151026447009514,72.54389920441339,-68.73249393063485,0.6849900113495383,,,,3,0,3,3
1788939805.1915767,771757466.0,-9.2734375,1.91015625,2.45703125,0.0,-0.0078125,0.041015625,22.9375,-11.0,-38.0625,22.9375,-11.0,-38.0625,0.028633184874749088,-0.5988427937645644,0.12853228241530204,0.7899663926125546,34.052229368470236,72.45717777987636,-158.86066085571917,0.53826904296875,0.51470947265625,0.3330078125,-0.57830810546875,34.22475243896465,72.51905663814111,-68.65471680112917,0.719973192995353,,,,3,0,2,3
1788939805.1955118,771758519.0,-9.27734375,1.94921875,2.41796875,-0.001953125,-0.00390625,0.033203125,22.9375,-11.0,-38.0625,22.9375,-11.0,-38.0625,0.028568316635661156,-0.5988349810841241,0.1285532275867208,0.7899712554211186,34.0690946489297,72.45299671453184,-158.84024445514288,0.53826904296875,0.51470947265625,0.3330078125,-0.57830810546875,34.22475243896465,72.51905663814111,-68.65471680112917,0.7220222978733852,,,,3,0,2,3
1788939805.1955433,771762779.0,-9.2734375,1.91015625,2.41796875,-0.005859375,0.001953125,0.02734375,22.9375,-11.0,-38.0625,22.9375,-11.0,-38.0625,0.028305714475894368,-0.598817765075713,0.12859626192931342,0.7899867544304429,34.1280114928122,72.43899240132906,-158.76345532779928,0.53839111328125,0.51470947265625,0.33294677734375,-0.5782470703125,34.25337501954355,72.51004617409144,-68.62481375001627,0.5104599508277439,,,,3,0,2,3
1788939805.1994784,771765932.0,-9.2734375,1.91015625,2.37890625,-0.005859375,0.001953125,0.02734375,22.9375,-11.0,-38.0625,22.9375,-11.0,-38.0625,0.02811010611001267,-0.598830711643682,0.1286311380405116,0.7899782472025467,34.178235764176385,72.43176224105093,-158.7000950390212,0.53839111328125,0.51470947265625,0.33294677734375,-0.5782470703125,34.25337501954355,72.51004617409144,-68.62481375001627,0.5190484538988845,,,,3,0,2,3
1788939805.1994784,771769661.0,-9.31640625,1.87109375,2.37890625,-0.015625,0.0,0.01953125,22.9375,-11.0,-38.0625,22.9375,-11.0,-38.0625,0.02788492158882256,-0.5988659045964736,0.12860829090223716,0.7899632693809492,34.22173235646865,72.42767363121455,-158.63620459249557,0.53839111328125,0.51470947265625,0.33294677734375,-0.5782470703125,34.25337501954355,72.51004617409144,-68.62481375001627,0.5281197449335402,,,,3,0,2,3
1788939805.2111084,771773821.0,-9.34375,1.87109375,2.37890625,-0.021484375,-0.001953125,0.013671875,22.9375,-11.0,-38.0625,22.9375,-11.0,-38.0625,0.027640919919466996,-0.5989118228339445,0.1285602607187976,0.7899448508469705,34.26364019533265,72.4248402416411,-158.5702509024629,0.53851318359375,0.51470947265625,0.33294677734375,-0.578125,34.28596887253568,72.50158821643555,-68.57539325234909,0.638784903052252,,,,3,0,2,3
1788939805.2151093,771777150.0,-9.34375,1.79296875,2.41796875,-0.03125,0.0,0.005859375,22.9375,-11.0,-38.0625,22.9375,-11.0,-38.0625,0.02748119579532567,-0.5989358889744855,0.12841524717580055,0.7899557639949086,34.256144191060464,72.4252303226512,-158.55259720277326,0.53851318359375,0.51470947265625,0.33294677734375,-0.578125,34.28596887253568,72.50158821643555,-68.57539325234909,0.6428822575054296,,,,3,0,2,3
1788939805.2176964,771781704.0,-9.3828125,1.7578125,2.37890625,-0.03125,0.0,0.005859375,22.9375,-11.0,-38.0625,22.9375,-11.0,-38.0625,0.027317443827441033,-0.5990289280393313,0.12820075863572247,0.7899257345599076,34.243800224524854,72.43609527835584,-158.53354662980774,0.53851318359375,0.51470947265625,0.33294677734375,-0.578125,34.28596887253568,72.50158821643555,-68.57539325234909,0.6465032958952668,,,,3,0,2,3
1788939805.2224793,771785363.0,-9.38671875,1.640625,2.37890625,-0.0234375,-0.001953125,0.01171875,20.875,-11.0625,-30.125,20.875,-11.0625,-30.125,0.027292634238977268,-0.5990478200215877,0.12833730815172054,0.7898900915823991,34.29304246683452,72.43386167984336,-158.4935618644102,0.53857421875,0.5146484375,0.33294677734375,-0.57806396484375,34.27842438154365,72.48392249860757,-68.55353028174562,1.1423693757326567,,,,3,0,3,3
1788939805.21953,771789769.0,-9.3828125,1.6015625,2.37890625,-0.03125,0.00390625,0.005859375,20.875,-11.0625,-30.125,20.875,-11.0625,-30.125,0.02727863248330273,-0.5990876247210368,0.12847390943612494,0.789838178812689,34.34479678341042,72.43472373392386,-158.45190749241138,0.53857421875,0.5146484375,0.33294677734375,-0.57806396484375,34.27842438154365,72.48392249860757,-68.55353028174562,1.1437701013319643,,,,3,0,3,3
1788939805.2264962,771796729.0,-9.3828125,1.48828125,2.37890625,-0.03515625,-0.00390625,0.0078125,20.375,-10.6875,-31.1875,20.375,-10.6875,-31.1875,0.02741093767324587,-0.5992007247927309,0.12847510283236838,0.7897476051599976,34.34472093867956,72.45451307392094,-158.46265457657677,0.5386962890625,0.51458740234375,0.3330078125,-0.5780029296875,34.27838464198033,72.4865239469033,-68.54662961975455,0.8863764602058481,,,,3,0,3,3
1788939805.235976,771801235.0,-9.38671875,1.44921875,2.41796875,-0.03125,-0.009765625,0.015625,20.375,-10.6875,-31.1875,20.375,-10.6875,-31.1875,0.027538342696397593,-0.5992371864499924,0.128452886552879,0.7897191209495096,34.32192508381807,72.4649629874916,-158.49394773175706,0.5386962890625,0.51458740234375,0.3330078125,-0.5780029296875,34.27838464198033,72.4865239469033,-68.54662961975455,0.8823204003498611,,,,3,0,3,3
1788939805.237929,771804694.0,-9.38671875,1.56640625,2.37890625,-0.017578125,-0.009765625,0.0234375,20.375,-10.6875,-31.1875,20.375,-10.6875,-31.1875,0.027560019172921137,-0.5992709976753086,0.12855132970995134,0.7896766884733472,34.354379300031916,72.46753817888829,-158.47135902743514,0.538818359375,0.5145263671875,0.33306884765625,-0.57794189453125,34.27834576804079,72.48913428213643,-68.53973647491335,0.5163521116457688,,,,3,0,3,3
1788939805.2455661,771808900.0,-9.3828125,1.52734375,2.41796875,-0.015625,-0.005859375,0.017578125,20.375,-10.6875,-31.1875,20.375,-10.6875,-31.1875,0.027657432935001475,-0.5993013069089056,0.1286461730166642,0.789634834660231,34.370651681148715,72.4728633987508,-158.4708560483719,0.538818359375,0.5145263671875,0.33306884765625,-0.57794189453125,34.27834576804079,72.48913428213643,-68.53973647491335,0.5151047800860249,,,,3,0,3,3
1788939805.251639,771817036.0,-9.34375,1.48828125,2.41796875,-0.01953125,-0.009765625,0.017578125,20.4375,-10.6875,-30.8125,20.4375,-10.6875,-30.8125,0.027879805086888823,-0.5993307051237482,0.1287884677880575,0.7895815049309299,34.37711247745161,72.4819316255851,-158.49432420897438,0.5389404296875,0.51446533203125,0.3330078125,-0.577880859375,34.28306039360727,72.46671187140832,-68.51280282318703,0.9025382304017869,,,,3,0,3,3
1788939805.255574,771820566.0,-9.31640625,1.52734375,2.45703125,-0.0234375,-0.01171875,0.02734375,20.4375,-10.6875,-30.8125,20.4375,-10.6875,-30.8125,0.027949283283592672,-0.5992876630110742,0.1289001291926761,0.7895934974534492,34.387686600829326,72.47632507717809,-158.49879260484593,0.5389404296875,0.51446533203125,0.3330078125,-0.577880859375,34.28306039360727,72.46671187140832,-68.51280282318703,0.903512444816363,,,,3,0,3,3
1788939805.2609813,771825002.0,-9.31640625,1.56640625,2.53125,-0.017578125,-0.017578125,0.033203125,22.625,-11.5625,-35.75,22.625,-11.5625,-35.75,0.027966230555242205,-0.5991482100851651,0.1288413646836458,0.7897083101036293,34.33666018975447,72.46081172100422,-158.54663890676315,0.5390625,0.51446533203125,0.33294677734375,-0.57781982421875,34.311549080439946,72.45771753872884,-68.48308206819475,0.7347604925202141,,,,3,0,3,3
1788939805.2609813,771828432.0,-9.3125,1.56640625,2.49609375,-0.01953125,-0.01171875,0.0390625,22.625,-11.5625,-35.75,22.625,-11.5625,-35.75,0.027995747400526013,-0.5990603048841452,0.12878995872491947,0.7897823344259066,34.29671430423059,72.45217806396958,-158.58492916105882,0.5390625,0.51446533203125,0.33294677734375,-0.57781982421875,34.311549080439946,72.45771753872884,-68.48308206819475,0.7329856266948693,,,,3,0,3,3
1788939805.2590282,771832691.0,-9.3125,1.6015625,2.53125,-0.013671875,-0.0078125,0.04296875,22.625,-11.5625,-35.75,22.625,-11.5625,-35.75,0.027975539728036024,-0.598922379703992,0.1287940738265532,0.7898869785062878,34.27184525726234,72.43366119316347,-158.6087932059286,0.53924560546875,0.514404296875,0.3328857421875,-0.57769775390625,34.332442448503606,72.43112050913858,-68.43165292081225,1.072643700590841,,,,3,0,3,3
1788939805.2609813,771836368.0,-9.27734375,1.6015625,2.53125,-0.013671875,-0.0078125,0.04296875,22.625,-11.5625,-35.75,22.625,-11.5625,-35.75,0.027951064712398107,-0.5988010308290763,0.128802931310671,0.7899783973915093,34.2528287125091,72.41695727397966,-158.62681258464826,0.53924560546875,0.514404296875,0.3328857421875,-0.57769775390625,34.332442448503606,72.43112050913858,-68.43165292081225,1.0734678350289804,,,,3,0,3,3
1788939805.2726562,771839897.0,-9.3125,1.6796875,2.49609375,-0.013671875,-0.0078125,0.044921875,22.625,-11.5625,-35.75,22.625,-11.5625,-35.75,0.027862955518561935,-0.5986815492746836,0.12893211573583524,0.7900509906327037,34.28187279414286,72.39471288305634,-158.60154639052678,0.53924560546875,0.514404296875,0.3328857421875,-0.57769775390625,34.332442448503606,72.43112050913858,-68.43165292081225,1.0773098470317848,,,,3,0,3,3
1788939805.28373,771844533.0,-9.31640625,1.71875,2.45703125,-0.005859375,-0.005859375,0.041015625,22.625,-11.4375,-37.75,22.625,-11.4375,-37.75,0.0276515871631902,-0.5986236231170359,0.12882987845792918,0.7901189847042688,34.27902229792115,72.38140397626746,-158.57875229388193,0.5394287109375,0.51446533203125,0.332763671875,-0.57757568359375,34.403142286163174,72.4188110277932,-68.3647134064138,0.8082127920886448,,,,3,0,2,3
1788939805.284729,771847663.0,-9.2734375,1.71875,2.45703125,0.0,-0.01171875,0.041015625,22.625,-11.4375,-37.75,22.625,-11.4375,-37.75,0.027514285269067195,-0.5985628154759028,0.1287864425379792,0.79017692465302,34.278947258951845,72.36919917392268,-158.56412688244882,0.5394287109375,0.51446533203125,0.332763671875,-0.57757568359375,34.403142286163174,72.4188110277932,-68.3647134064138,0.8102908383592836,,,,3,0,2,3
1788939805.2863402,771851993.0,-9.31640625,1.87109375,2.45703125,0.0,-0.01171875,0.041015625,22.625,-11.4375,-37.75,22.625,-11.4375,-37.75,0.027263398757003447,-0.5984920556827181,0.12893891359832507,0.7902143525227662,34.35589595496659,72.34588343037994,-158.47946447221472,0.5394287109375,0.51446533203125,0.332763671875,-0.57757568359375,34.403142286163174,72.4188110277932,-68.3647134064138,0.8190687680809878,,,,3,0,2,3
1788939805.2922952,771855975.0,-9.34765625,1.94921875,2.37890625,0.00390625,-0.001953125,0.033203125,22.75,-10.375,-37.0,22.75,-10.375,-37.0,0.02703050574027595,-0.59852368388156,0.12893155358472266,0.7901995988878389,34.40435489308439,72.34056960095526,-158.41127351240957,0.53955078125,0.51446533203125,0.3326416015625,-0.5775146484375,34.433785896703476,72.39733501847518,-68.32527985070939,0.9655450051243768,,,,3,0,2,3
1788939805.2932951,771860282.0,-9.38671875,1.984375,2.37890625,0.001953125,-0.009765625,0.029296875,22.75,-10.375,-37.0,22.75,-10.375,-37.0,0.026781070096735637,-0.5985470434374696,0.12893833662124204,0.7901892915157007,34.45826530682465,72.33313365551004,-158.33747017851363,0.53955078125,0.51446533203125,0.3326416015625,-0.5775146484375,34.433785896703476,72.39733501847518,-68.32527985070939,0.9707677116034865,,,,3,0,2,3
1788939805.3010983,771863664.0,-9.38671875,1.94921875,2.45703125,-0.00390625,-0.01171875,0.021484375,22.75,-10.375,-37.0,22.75,-10.375,-37.0,0.026601379199273585,-0.5985228071317725,0.12889195977877113,0.7902212846236092,34.47306545953656,72.3239207665288,-158.30417656804306,0.5396728515625,0.5145263671875,0.33258056640625,-0.57745361328125,34.48581730879885,72.40169737469135,-68.29297646079564,0.0,,,,3,0,2,3
1788939805.3040955,771867971.0,-9.3828125,1.87109375,2.49609375,-0.00390625,-0.013671875,0.013671875,22.75,-10.375,-37.0,22.75,-10.375,-37.0,0.026446845141088405,-0.5984725660679701,0.1287648171012658,0.7902852484533543,34.45372460071543,72.31460076356264,-158.30043727212143,0.5396728515625,0.5145263671875,0.33258056640625,-0.57745361328125,34.48581730879885,72.40169737469135,-68.29297646079564,0.0,,,,3,0,2,3
1788939805.306016,771871147.0,-9.3828125,1.91015625,2.41796875,-0.00390625,-0.013671875,0.013671875,22.75,-10.375,-37.0,22.75,-10.375,-37.0,0.026295028508957416,-0.5984784638436071,0.12869177196630083,0.7902977461813256,34.46197348362609,72.31108221474032,-158.27369547245448,0.5396728515625,0.5145263671875,0.33258056640625,-0.57745361328125,34.48581730879885,72.40169737469135,-68.29297646079564,0.0,,,,3,0,2,3
1788939805.3121893,771875207.0,-9.3828125,1.83203125,2.37890625,-0.009765625,-0.01171875,0.01171875,19.8125,-12.0625,-31.0625,19.8125,-12.0625,-31.0625,0.026256892946574448,-0.5984643608855327,0.12887876033865303,0.7902792224626909,34.52104253714565,72.30270071525011,-158.22705445116128,0.53973388671875,0.51446533203125,0.33251953125,-0.57745361328125,34.47417068832729,72.38355600201939,-68.29087201987778,0.5931872794453091,,,,3,0,3,3
1788939805.3161879,771879213.0,-9.3828125,1.83203125,2.37890625,-0.013671875,-0.009765625,0.0,19.8125,-12.0625,-31.0625,19.8125,-12.0625,-31.0625,0.026233025041575146,-0.5984568397753011,0.12904305899366939,0.7902588995062845,34.57216440999025,72.29634166466232,-158.18763093478992,0.53973388671875,0.51446533203125,0.33251953125,-0.57745361328125,34.47417068832729,72.38355600201939,-68.29087201987778,0.5985662023513773,,,,3,0,3,3
1788939805.3221056,771887749.0,-9.34375,1.83203125,2.41796875,-0.017578125,-0.01171875,-0.005859375,20.375,-11.25,-31.625,20.375,-11.25,-31.625,0.026150412947489175,-0.5984176204035595,0.1293694026179336,0.7902379800791002,34.674903593395456,72.2791518046723,-158.10530370690824,0.539794921875,0.514404296875,0.33251953125,-0.57745361328125,34.46023510241795,72.37789643649575,-68.29864739874954,0.577657189417192,,,,3,0,3,3
1788939805.3261046,771890879.0,-9.3828125,1.79296875,2.41796875,-0.015625,-0.01171875,-0.0078125,20.375,-11.25,-31.625,20.375,-11.25,-31.625,0.02613473852820633,-0.59840935892608,0.12948789304992667,0.7902253476985099,34.71080085752518,72.274251145141,-158.07797646031526,0.539794921875,0.514404296875,0.33251953125,-0.57745361328125,34.46023510241795,72.37789643649575,-68.29864739874954,0.5830213585442552,,,,3,0,3,3
1788939805.3277092,771895514.0,-9.34375,1.71875,2.49609375,-0.015625,-0.013671875,-0.009765625,19.4375,-11.1875,-31.375,19.4375,-11.1875,-31.375,0.02614989861331921,-0.5983511883590825,0.12967136571881127,0.7902388089080449,34.74910810564341,72.26252987981664,-158.05626588782263,0.53985595703125,0.51434326171875,0.33251953125,-0.57745361328125,34.44630815484321,72.37223863038913,-68.30641747857308,0.5542507889240219,,,,3,0,3,3
1788939805.3277092,771898944.0,-9.34765625,1.640625,2.41796875,-0.021484375,-0.01171875,-0.01171875,19.4375,-11.1875,-31.375,19.4375,-11.1875,-31.375,0.02618641872006178,-0.5983511831438302,0.12977923471976038,0.7902198955610708,34.77393737560897,72.26111543272715,-158.0433769990413,0.53985595703125,0.51434326171875,0.33251953125,-0.57745361328125,34.44630815484321,72.37223863038913,-68.30641747857308,0.5576640885664069,,,,3,0,3,3
1788939805.3277092,771907080.0,-9.3125,1.56640625,2.41796875,-0.025390625,-0.015625,-0.00390625,20.625,-10.4375,-29.4375,20.625,-10.4375,-29.4375,0.02637183569067319,-0.5983786645925396,0.12994100815602588,0.7901663334021191,34.792856315066444,72.26788487274882,-158.05299138715526,0.53985595703125,0.51422119140625,0.33258056640625,-0.5775146484375,34.390233895165025,72.36991003688324,-68.35136628780343,0.714152419496232,,,,3,0,3,3
1788939805.3454852,771910410.0,-9.2734375,1.52734375,2.49609375,-0.015625,-0.015625,0.005859375,20.625,-10.4375,-29.4375,20.625,-10.4375,-29.4375,0.026492599572979808,-0.5983131486943304,0.1299980386386713,0.7902025235453505,34.772798162137256,72.26302731934774,-158.0878077768072,0.53985595703125,0.51422119140625,0.33258056640625,-0.5775146484375,34.390233895165025,72.36991003688324,-68.35136628780343,0.7131566957295356,,,,3,0,3,3
1788939805.3514833,771914269.0,-9.3125,1.56640625,2.45703125,-0.013671875,-0.017578125,0.0078125,19.625,-9.5,-29.8125,19.625,-9.5,-29.8125,0.026561800269065548,-0.5982993317845612,0.12981980180885602,0.7902399631826544,34.704600688841715,72.26895015052628,-158.14690268127734,0.53997802734375,0.51416015625,0.33258056640625,-0.5775146484375,34.38613055469414,72.37193414845383,-68.36403241523334,0.0,,,,3,0,3,3
1788939805.355097,771918475.0,-9.2734375,1.6015625,2.49609375,-0.009765625,-0.013671875,0.0078125,19.625,-9.5,-29.8125,19.625,-9.5,-29.8125,0.026614050108206236,-0.5982312336832749,0.12965678070002934,0.7903165205163873,34.6322035483167,72.26685430251544,-158.21019506943614,0.53997802734375,0.51416015625,0.33258056640625,-0.5775146484375,34.38613055469414,72.37193414845383,-68.36403241523334,0.0,,,,3,0,3,3
1788939805.3560612,771922705.0,-9.3125,1.640625,2.45703125,-0.009765625,-0.013671875,0.0078125,19.625,-9.5,-29.8125,19.625,-9.5,-29.8125,0.02667196433135482,-0.5982166904680989,0.1294599375499868,0.7903578443551094,34.56044777898291,72.27268128523016,-158.27038343643505,0.53997802734375,0.51416015625,0.33258056640625,-0.5775146484375,34.38613055469414,72.37193414845383,-68.36403241523334,0.0,,,,3,0,3,3
1788939805.3603618,771926688.0,-9.3125,1.6796875,2.41796875,-0.009765625,-0.013671875,0.009765625,22.6875,-10.5625,-35.3125,22.6875,-10.5625,-35.3125,0.026638928703396295,-0.59823889833314,0.12926226605273386,0.7903745027350001,34.51337307902266,72.27944740958729,-158.29830086024063,0.5400390625,0.51409912109375,0.33251953125,-0.5775146484375,34.37457167987523,72.3538139551547,-68.36188439415358,0.20728468053542692,,,,3,0,3,3
1788939805.3603618,771930018.0,-9.34765625,1.6796875,2.37890625,-0.001953125,-0.013671875,0.005859375,22.6875,-10.5625,-35.3125,22.6875,-10.5625,-35.3125,0.026626125284742192,-0.5982901265356775,0.1291210839214095,0.7903592345441437,34.48537703665733,72.28921615123147,-158.31341899415534,0.5400390625,0.51409912109375,0.33251953125,-0.5775146484375,34.37457167987523,72.3538139551547,-68.36188439415358,0.19156942372798505,,,,3,0,3,3
1788939805.373782,771937154.0,-9.38671875,1.6796875,2.37890625,-0.005859375,-0.01171875,0.013671875,22.75,-8.375,-36.4375,22.75,-8.375,-36.4375,0.026553912646754177,-0.5983217538909983,0.12878711811167143,0.7903922107108841,34.407553906489994,72.29921418212969,-158.35755057331502,0.54010009765625,0.5140380859375,0.33245849609375,-0.5775146484375,34.36302955395064,72.3357089451808,-68.35974066277706,0.718000720310241,,,,3,0,3,3
1788939805.377717,771938207.0,-9.46484375,1.640625,2.33984375,0.0,-0.021484375,0.005859375,22.75,-8.375,-36.4375,22.75,-8.375,-36.4375,0.026551218120421646,-0.5983260512888983,0.12873795338172087,0.7903970575125152,34.39452799622608,72.30096461020283,-158.36626678150748,0.54010009765625,0.5140380859375,0.33245849609375,-0.5775146484375,34.36302955395064,72.3357089451808,-68.35974066277706,0.7169313906993309,,,,3,0,3,3
1788939805.377755,771942466.0,-9.46484375,1.6796875,2.33984375,0.00390625,-0.02734375,0.0078125,22.75,-8.375,-36.4375,22.75,-8.375,-36.4375,0.026536048084813947,-0.598333611915842,0.1285484528287171,0.790422685832793,34.3432577491094,72.30636622336026,-158.40055471522453,0.5401611328125,0.51397705078125,0.3323974609375,-0.5775146484375,34.351504139571325,72.31761907157161,-68.35760121258225,0.9988739947196326,,,,3,0,3,3
1788939805.38169,771945819.0,-9.46484375,1.640625,2.33984375,0.00390625,-0.02734375,0.0078125,22.75,-8.375,-36.4375,22.75,-8.375,-36.4375,0.02652959668860971,-0.598339250335789,0.12839886152763025,0.7904429482040776,34.301662882104864,72.310809227507,-158.42919685151688,0.5401611328125,0.51397705078125,0.3323974609375,-0.5775146484375,34.351504139571325,72.31761907157161,-68.35760121258225,0.9970970428281354,,,,3,0,3,3
1788939805.3858068,771950325.0,-9.42578125,1.640625,2.3046875,-0.001953125,-0.033203125,0.005859375,22.75,-8.375,-36.4375,22.75,-8.375,-36.4375,0.02651630445216527,-0.5983436601380687,0.12818632066592447,0.7904745518768533,34.24254023777647,72.31648703357982,-158.4695872668829,0.5401611328125,0.51397705078125,0.3323974609375,-0.5775146484375,34.351504139571325,72.31761907157161,-68.35760121258225,0.9951766915600924,,,,3,0,3,3
1788939805.3917742,771953308.0,-9.42578125,1.640625,2.3046875,-0.00390625,-0.044921875,0.017578125,22.75,-8.375,-36.4375,22.75,-8.375,-36.4375,0.026493792493118097,-0.5983309156746934,0.12805343618146686,0.7905064906686937,34.20489639857202,72.31747900890235,-158.49439223614004,0.540283203125,0.513916015625,0.332275390625,-0.57757568359375,34.345792210062925,72.30658412172988,-68.37980391636553,0.4671024676990744,,,,3,0,3,3
1788939805.3932402,771957814.0,-9.46484375,1.640625,2.37890625,0.01171875,-0.048828125,0.01953125,22.75,-8.375,-36.4375,22.75,-8.375,-36.4375,0.02647992132340905,-0.5982880989357175,0.12787935789001648,0.7905675393438742,34.147029343803766,72.31608014487071,-158.53677607300784,0.540283203125,0.513916015625,0.332275390625,-0.57757568359375,34.345792210062925,72.30658412172988,-68.37980391636553,0.4656880848824353,,,,3,0,3,3
1788939805.3932402,771961968.0,-9.38671875,1.640625,2.41796875,0.01171875,-0.048828125,0.01953125,22.75,-8.375,-36.4375,22.75,-8.375,-36.4375,0.026464594077269882,-0.598235689384392,0.12771862576804086,0.790633693842496,34.0913231700541,72.31303569989296,-158.5780086398662,0.540283203125,0.513916015625,0.332275390625,-0.57757568359375,34.345792210062925,72.30658412172988,-68.37980391636553,0.4654519600958261,,,,3,0,3,3
1788939805.3932402,771966027.0,-9.38671875,1.6796875,2.41796875,0.005859375,-0.05078125,0.017578125,19.3125,-9.3125,-31.5625,19.3125,-9.3125,-31.5625,0.026433479187793832,-0.598230574625598,0.12756825337348787,0.7906628810639796,34.05179301107943,72.31509819190356,-158.60252934241467,0.54034423828125,0.5137939453125,0.33209228515625,-0.57769775390625,34.30283040516033,72.27401970936815,-68.41929881941158,0.8637384009399446,,,,3,0,3,3
1788939805.3932402,771969257.0,-9.34765625,1.6796875,2.45703125,0.0,-0.056640625,0.025390625,19.3125,-9.3125,-31.5625,19.3125,-9.3125,-31.5625,0.026386832897877445,-0.5981758617689198,0.12743510446067768,0.7907273029292246,34.00964346908657,72.30974711068362,-158.62993707890038,0.54034423828125,0.5137939453125,0.33209228515625,-0.57769775390625,34.30283040516033,72.27401970936815,-68.41929881941158,0.8650364095726443,,,,3,0,3,3
1788939805.412404,771977593.0,-9.27734375,1.7578125,2.53125,0.00390625,-0.056640625,0.013671875,20.0625,-10.25,-31.1875,20.0625,-10.25,-31.1875,0.026274289347812757,-0.597819855876027,0.12782675723434778,0.7909370403354397,34.06988132578044,72.24944553103087,-158.59377042504804,0.54052734375,0.513671875,0.33184814453125,-0.5777587890625,34.2881615964948,72.2325438259845,-68.42941434024854,0.9999993895294216,,,,3,0,3,3
1788939805.4154048,771980722.0,-9.234375,1.7578125,2.49609375,0.0,-0.0546875,0.015625,20.0625,-10.25,-31.1875,20.0625,-10.25,-31.1875,0.02622116450923427,-0.5977027532231264,0.12798036379805885,0.7910024625773239,34.09992008401172,72.22830368031914,-158.57238962647787,0.54052734375,0.513671875,0.33184814453125,-0.5777587890625,34.2881615964948,72.2325438259845,-68.42941434024854,1.001907408445254,,,,3,0,3,3
1788939805.421403,771985158.0,-9.1953125,1.71875,2.53125,0.0,-0.0546875,0.021484375,19.5,-10.5625,-30.625,19.5,-10.5625,-30.625,0.026183567156783008,-0.5975288051029342,0.12821261355613875,0.7910975120731389,34.137923987759194,72.19847002176039,-158.5509669834315,0.5406494140625,0.5135498046875,0.3316650390625,-0.577880859375,34.2552123611996,72.20765431491152,-68.47362117513195,0.8145843285916415,,,,3,0,3,3
1788939805.4254034,771988588.0,-9.15625,1.7578125,2.5703125,-0.00390625,-0.05078125,0.017578125,19.5,-10.5625,-30.625,19.5,-10.5625,-30.625,0.026143491975411888,-0.5973872627531057,0.12837080346408714,0.7911800761809338,34.161544406209956,72.17462657016766,-158.53750941133598,0.5406494140625,0.5135498046875,0.3316650390625,-0.577880859375,34.2552123611996,72.20765431491152,-68.47362117513195,0.8177882313153693,,,,3,0,3,3
1788939805.4311507,771996924.0,-9.15625,1.6796875,2.609375,-0.01171875,-0.041015625,0.021484375,19.1875,-10.5625,-30.6875,19.1875,-10.5625,-30.6875,0.02607706569144429,-0.5970304671232118,0.12868533193067505,0.7914004633037913,34.189911369366136,72.1181739898626,-158.53060565165168,0.54083251953125,0.513427734375,0.33148193359375,-0.57794189453125,34.23835591216901,72.17861210739919,-68.49344894383893,0.6236074657806081,,,,3,0,3,3
1788939805.4354699,772000454.0,-9.19921875,1.640625,2.6484375,-0.009765625,-0.03515625,0.017578125,19.1875,-10.5625,-30.6875,19.1875,-10.5625,-30.6875,0.026075952264228392,-0.5968792644912895,0.12879142046385542,0.7914972889080248,34.188972935211005,72.09607699961832,-158.54059606904315,0.54083251953125,0.513427734375,0.33148193359375,-0.57794189453125,34.23835591216901,72.17861210739919,-68.49344894383893,0.6278721144373377,,,,3,0,3,3
1788939805.4414897,772004889.0,-9.234375,1.640625,2.6484375,-0.013671875,-0.033203125,0.01953125,19.6875,-11.6875,-31.75,19.6875,-11.6875,-31.75,0.02607004089239194,-0.5967298475495344,0.12898500565046955,0.7915786191710377,34.214802689390716,72.07169823418994,-158.53068554165915,0.54095458984375,0.51336669921875,0.33135986328125,-0.57794189453125,34.23912466413259,72.1558445199248,-68.48633417323963,0.7392886011642757,,,,3,0,3,3
1788939805.444363,772008119.0,-9.23828125,1.6015625,2.6484375,-0.009765625,-0.025390625,0.021484375,19.6875,-11.6875,-31.75,19.6875,-11.6875,-31.75,0.026079165453196104,-0.5966290765349462,0.12912846781293463,0.7916308868169596,34.23353399544804,72.0554504409918,-158.52483555456655,0.54095458984375,0.51336669921875,0.33135986328125,-0.57794189453125,34.23912466413259,72.1558445199248,-68.48633417323963,0.7436113727881928,,,,3,0,3,3
1788939805.446408,772012549.0,-9.2734375,1.6015625,2.5703125,-0.009765625,-0.025390625,0.021484375,19.6875,-11.6875,-31.75,19.6875,-11.6875,-31.75,0.026098622621897393,-0.5965292000884034,0.1293446522866306,0.7916702193868228,34.271675748446434,72.03781142233032,-158.50645662638297,0.54095458984375,0.51336669921875,0.33135986328125,-0.57794189453125,34.23912466413259,72.1558445199248,-68.48633417323963,0.7500023903862382,,,,3,0,3,3
1788939805.452361,772016532.0,-9.234375,1.6015625,2.5703125,-0.005859375,-0.017578125,0.015625,19.875,-10.5625,-30.1875,19.875,-10.5625,-30.1875,0.02614968856985666,-0.5964132511163245,0.12950413353361978,0.7917298194954273,34.284075926219316,72.02092273797612,-158.51173605321546,0.54107666015625,0.5133056640625,0.331298828125,-0.57794189453125,34.23750017918632,72.14543262815081,-68.4890061447984,0.42819797439167523,,,,3,0,3,3
1788939805.4563615,772019961.0,-9.27734375,1.640625,2.5703125,-0.001953125,-0.0234375,0.009765625,19.875,-10.5625,-30.1875,19.875,-10.5625,-30.1875,0.02618754339063338,-0.5963152011879952,0.12965800050025,0.7917772390701577,34.30106106276434,72.00592302674428,-158.51084424568123,0.54107666015625,0.5133056640625,0.331298828125,-0.57794189453125,34.23750017918632,72.14543262815081,-68.4890061447984,0.43783786250928003,,,,3,0,3,3
1788939805.4630194,772027197.0,-9.34375,1.640625,2.609375,0.005859375,-0.021484375,0.017578125,23.125,-10.3125,-36.5625,23.125,-10.3125,-36.5625,0.026177485334057726,-0.5962058512095569,0.12939559930326225,0.7919028356597939,34.20365986196918,71.99855289461378,-158.58588410420407,0.5411376953125,0.51324462890625,0.3311767578125,-0.57794189453125,34.22860433734301,72.11514258563874,-68.47709191722646,1.0929745754921234,,,,3,0,2,3
1788939805.4674466,772028250.0,-9.3828125,1.71875,2.5703125,0.005859375,-0.0234375,0.01953125,23.125,-10.3125,-36.5625,23.125,-10.3125,-36.5625,0.026168552955716073,-0.5961923035744802,0.12935621188342353,0.7919197651542292,34.191017343790385,71.99750664593229,-158.59455628811534,0.5411376953125,0.51324462890625,0.3311767578125,-0.57794189453125,34.22860433734301,72.11514258563874,-68.47709191722646,1.0926590578715385,,,,3,0,2,3
1788939805.4667006,772032657.0,-9.42578125,1.7578125,2.5703125,0.005859375,-0.0234375,0.01953125,23.125,-10.3125,-36.5625,23.125,-10.3125,-36.5625,0.026114868689867007,-0.5961384360114641,0.12919224378962516,0.791988852754708,34.14197495318822,71.99279859859723,-158.62571462949833,0.5411376953125,0.51324462890625,0.3311767578125,-0.57794189453125,34.22860433734301,72.11514258563874,-68.47709191722646,1.0918794077972684,,,,3,0,2,3
1788939805.472961,772036339.0,-9.38671875,1.71875,2.53125,0.0078125,-0.013671875,0.015625,23.25,-11.0625,-38.0,23.25,-11.0625,-38.0,0.026083044591164454,-0.596123376843586,0.12904592509341983,0.7920250902479281,34.10220055999222,71.9934463630079,-158.65077175879705,0.54119873046875,0.51324462890625,0.3310546875,-0.57794189453125,34.243061327727915,72.09804194399759,-68.4624408695832,1.1732410099933872,,,,3,0,2,3
1788939805.4765966,772040046.0,-9.38671875,1.71875,2.53125,0.009765625,-0.01171875,0.015625,23.25,-11.0625,-38.0,23.25,-11.0625,-38.0,0.026051379781172355,-0.5961115173566476,0.12890155130386532,0.7920585676310239,34.06363411088577,71.99445315912236,-158.67478853100343,0.54119873046875,0.51324462890625,0.3310546875,-0.57794189453125,34.243061327727915,72.09804194399759,-68.4624408695832,1.1724496045035016,,,,3,0,2,3
1788939805.4796722,772047905.0,-9.38671875,1.6796875,2.5703125,-0.001953125,-0.017578125,0.025390625,23.25,-11.0625,-38.0,23.25,-11.0625,-38.0,0.025976896809613674,-0.5960209467857427,0.1285973030607156,0.7921786196750579,33.970071931397094,71.98789707317891,-158.73720311726524,0.54132080078125,0.51324462890625,0.3309326171875,-0.57794189453125,34.26714969987654,72.08847592502836,-68.4526521779805,0.8323687244212993,,,,3,0,2,3
1788939805.4842384,772048058.0,-9.34765625,1.6015625,2.609375,0.005859375,-0.015625,0.025390625,23.875,-10.25,-35.75,23.875,-10.25,-35.75,0.02597665149939588,-0.5960190718892376,0.12859201591726696,0.79218089661611,33.9681902367247,71.98778699446304,-158.73863006778632,0.54132080078125,0.51324462890625,0.3309326171875,-0.57794189453125,34.26714969987654,72.08847592502836,-68.4526521779805,0.8323767675634932,,,,3,0,2,3
1788939805.4861915,772051335.0,-9.34375,1.640625,2.609375,0.005859375,-0.015625,0.025390625,23.875,-10.25,-35.75,23.875,-10.25,-35.75,0.02596209040768368,-0.5959751273500107,0.12848108769143973,0.7922324327793115,33.92949175504754,71.98450757867121,-158.76702768266998,0.54132080078125,0.51324462890625,0.3309326171875,-0.57794189453125,34.26714969987654,72.08847592502836,-68.4526521779805,0.8330185150408694,,,,3,0,2,3
1788939805.49242,772055671.0,-9.34375,1.6796875,2.609375,0.005859375,-0.013671875,0.041015625,22.5,-11.75,-36.75,22.5,-11.75,-36.75,0.02593432725217579,-0.5958098482011488,0.1285788438445154,0.7923417926451368,33.92848902621867,71.95976836945253,-158.7742449186098,0.5413818359375,0.51324462890625,0.330810546875,-0.57794189453125,34.28156310492261,72.0713860184083,-68.43806707660642,0.9432483997368954,,,,3,0,2,3
1788939805.493426,772059100.0,-9.34375,1.6796875,2.6484375,0.01171875,-0.0078125,0.044921875,22.5,-11.75,-36.75,22.5,-11.75,-36.75,0.025906646736397004,-0.5956876931622278,0.1286499593040727,0.7924229967895932,33.9287492071862,71.94122704167623,-158.77789817396413,0.5413818359375,0.51324462890625,0.330810546875,-0.57794189453125,34.28156310492261,72.0713860184083,-68.43806707660642,0.9470906289244657,,,,3,0,2,3
1788939805.5007174,772067236.0,-9.34765625,1.71875,2.6484375,0.01953125,-0.009765625,0.0390625,19.6875,-12.8125,-29.75,19.6875,-12.8125,-29.75,0.025860584549035094,-0.595577634749715,0.12920543137358032,0.792416852203614,34.07506540233459,71.910779561265,-158.67417673068368,0.54150390625,0.51336669921875,0.3306884765625,-0.577880859375,34.35839588342243,72.0764109071241,-68.39388501781447,0.0,,,,3,0,3,3
1788939805.5026705,772071543.0,-9.3125,1.71875,2.6484375,0.013671875,0.0,0.037109375,19.6875,-12.8125,-29.75,19.6875,-12.8125,-29.75,0.02582982294134082,-0.5955344084656063,0.12948748073634825,0.7924043039464722,34.15321469681021,71.89660741060946,-158.6170262853816,0.54150390625,0.51336669921875,0.3306884765625,-0.577880859375,34.35839588342243,72.0764109071241,-68.39388501781447,0.0,,,,3,0,3,3
1788939805.5121047,772075002.0,-9.34765625,1.7578125,2.6484375,0.02734375,-0.001953125,0.0390625,18.8125,-12.625,-31.625,18.8125,-12.625,-31.625,0.025818885526259657,-0.5954902519899791,0.12973409222249907,0.7923975077259502,34.21722210368505,71.88404148076556,-158.5727013265706,0.54156494140625,0.51348876953125,0.33050537109375,-0.57781982421875,34.42787906379105,72.06160505326697,-68.33529962023329,0.0,,,,3,0,3,3
1788939805.5181086,772079308.0,-9.34765625,1.7578125,2.609375,0.021484375,0.00390625,0.033203125,18.8125,-12.625,-31.625,18.8125,-12.625,-31.625,0.025806498833499687,-0.595456587839938,0.13002397374671595,0.7923756955302755,34.29611404351042,71.87159303161162,-158.51694403404542,0.54156494140625,0.51348876953125,0.33050537109375,-0.57781982421875,34.42787906379105,72.06160505326697,-68.33529962023329,0.0,,,,3,0,3,3
1788939805.5226173,772086568.0,-9.27734375,1.83203125,2.6484375,0.029296875,0.009765625,0.03125,19.0625,-11.6875,-31.8125,19.0625,-11.6875,-31.8125,0.02575622052409676,-0.5953615045927255,0.13052202589492787,0.7923668952636045,34.42892986497228,71.8442527699405,-158.42159255894222,0.54156494140625,0.51361083984375,0.330322265625,-0.57769775390625,34.49384393478307,72.02765778342068,-68.24309666707597,1.1575237099048836,,,,3,0,3,3
1788939805.526627,772091274.0,-9.3125,1.83203125,2.609375,0.02734375,0.01171875,0.029296875,19.0625,-11.6875,-31.8125,19.0625,-11.6875,-31.8125,0.025726891996740636,-0.5953203504322802,0.1308438298844271,0.7923456944860306,34.51827975804384,71.82926207391918,-158.35666444975558,0.54156494140625,0.51361083984375,0.330322265625,-0.57769775390625,34.49384393478307,72.02765778342068,-68.24309666707597,1.1656184885493752,,,,3,0,3,3
1788939805.526627,772095033.0,-9.27734375,1.83203125,2.609375,0.02734375,0.017578125,0.02734375,20.75,-10.75,-31.125,20.75,-10.75,-31.125,0.025671890514242738,-0.5952637340419411,0.13107564292660018,0.7923517001958462,34.5830355697198,71.81364047922749,-158.3067919073646,0.54156494140625,0.5137939453125,0.3302001953125,-0.57763671875,34.57458835735674,72.03074460668883,-68.18669690683407,0.9377567398349197,,,,3,0,3,3
1788939805.526627,772098939.0,-9.27734375,1.87109375,2.609375,0.01953125,0.0234375,0.02734375,20.75,-10.75,-31.125,20.75,-10.75,-31.125,0.02559294531955784,-0.5952187477897105,0.13130512227118984,0.792350054139499,34.653816384258974,71.79855675495666,-158.2487156194429,0.54156494140625,0.5137939453125,0.3302001953125,-0.57763671875,34.57458835735674,72.03074460668883,-68.18669690683407,0.9475772381121597,,,,3,0,3,3
1788939805.524674,772102193.0,-9.23828125,1.91015625,2.609375,0.01953125,0.0234375,0.02734375,20.75,-10.75,-31.125,20.75,-10.75,-31.125,0.025519186391125204,-0.5951816263406916,0.13149324298201767,0.7923491211848831,34.713351002934964,71.78577507572601,-158.19885731600849,0.54156494140625,0.5137939453125,0.3302001953125,-0.57763671875,34.57458835735674,72.03074460668883,-68.18669690683407,0.9563860193822988,,,,3,0,3,3
1788939805.54235,772106175.0,-9.2734375,1.91015625,2.5703125,0.0234375,0.025390625,0.03125,19.5625,-10.5,-30.25,19.5625,-10.5,-30.25,0.02543329237022524,-0.5951615679871962,0.13175186645131418,0.7923239875939815,34.7988369900031,71.7727397770957,-158.12787338870424,0.54156494140625,0.513916015625,0.33013916015625,-0.57757568359375,34.6297124837381,72.03300712686739,-68.14267727846077,0.8580731259070932,,,,3,0,3,3
1788939805.548398,772110482.0,-9.2734375,1.91015625,2.5703125,0.029296875,0.041015625,0.015625,19.5625,-10.5,-30.25,19.5625,-10.5,-30.25,0.025370152630515154,-0.5951692444620323,0.13202192646924324,0.7922752910026588,34.88928244670357,71.76381459136171,-158.05467995077169,0.54156494140625,0.513916015625,0.33013916015625,-0.57757568359375,34.6297124837381,72.03300712686739,-68.14267727846077,0.8704663066318933,,,,3,0,3,3
1788939805.5523107,772113864.0,-9.34375,1.91015625,2.49609375,0.0234375,0.0390625,0.0078125,19.5625,-10.5,-30.25,19.5625,-10.5,-30.25,0.025329762182103335,-0.5952146318443393,0.13221897130968222,0.79220962428641,34.96265819439255,71.76254477763013,-157.99426579971305,0.54150390625,0.51416015625,0.330078125,-0.57745361328125,34.72816284686046,72.04231334087194,-68.05929862510934,0.8450139630216444,,,,3,0,3,3
1788939805.5554123,772118171.0,-9.34375,1.91015625,2.49609375,0.02734375,0.046875,-0.005859375,19.5625,-10.5,-30.25,19.5625,-10.5,-30.25,0.025304221510192976,-0.5952885779857895,0.13245967401720146,0.7921146634501071,35.05195220631231,71.76428981646198,-157.92271097805462,0.54150390625,0.51416015625,0.330078125,-0.57745361328125,34.72816284686046,72.04231334087194,-68.05929862510934,0.853906182646928,,,,3,0,3,3
