pc_unix,dev_us,ax,ay,az,gx,gy,gz,mx_raw,my_raw,mz_raw,mx,my,mz,host_qw,host_qx,host_qy,host_qz,host_roll,host_pitch,host_yaw,chip_qw,chip_qx,chip_qy,chip_qz,chip_roll,chip_pitch,chip_yaw,diff_deg,rel_roll,rel_pitch,rel_yaw,cal_acc,cal_gyr,cal_mag,cal_rv
1788945332.82452,421027350.0,-8.9921875,0.9609375,2.83984375,0.01171875,-0.146484375,-0.025390625,19.0,-2.5625,-32.0625,19.0,-2.5625,-32.0625,-0.04703215439417412,-0.5791695083269396,0.02725110312830105,0.8133929151742497,16.782450096458312,69.98807127162682,-161.5899107931036,0.6068115234375,0.42840576171875,0.388427734375,-0.5452880859375,16.21515420208133,69.8200778488363,-72.52418065201852,3.014834373514782,,,,3,0,3,3
1788945332.82452,421030933.0,-8.99609375,0.921875,2.87890625,0.02734375,-0.1640625,-0.03125,21.5,-0.4375,-38.125,21.5,-0.4375,-38.125,-0.0469550006891768,-0.579017997831666,0.027146139366675728,0.8135087419412118,16.72201048232284,69.97162290893168,-161.64802066645453,0.6068115234375,0.42840576171875,0.388427734375,-0.5452880859375,16.21515420208133,69.8200778488363,-72.52418065201852,3.002594393678458,,,,3,0,3,3
1788945332.8341951,421036216.0,-9.03515625,0.921875,2.87890625,0.03515625,-0.17578125,-0.02734375,21.5,-0.4375,-38.125,21.5,-0.4375,-38.125,-0.046835815197531654,-0.5787731460483048,0.027021558933334258,0.813693976370074,16.637521341882305,69.94390057659146,-161.73199614953555,0.60699462890625,0.427978515625,0.387939453125,-0.5457763671875,16.113245475250537,69.73744130030686,-72.64932475276119,2.9619298520062647,,,,3,0,3,3
1788945332.8323092,421040369.0,-8.9921875,0.8828125,2.91796875,0.03515625,-0.17578125,-0.02734375,21.5,-0.4375,-38.125,21.5,-0.4375,-38.125,-0.046734878324141985,-0.5785695447933987,0.026904964209890466,0.8138484231639525,16.56366327291525,69.9211462146291,-161.80450833772542,0.60699462890625,0.427978515625,0.387939453125,-0.5457763671875,16.113245475250537,69.73744130030686,-72.64932475276119,2.9478421252042284,,,,3,0,3,3
1788945332.8388567,421043152.0,-8.9921875,0.80859375,2.95703125,0.03515625,-0.193359375,-0.02734375,21.0625,-0.9375,-38.9375,21.0625,-0.9375,-38.9375,-0.04664836961072294,-0.5784122344966605,0.026829677574493435,0.8139676805613909,16.50906616409367,69.90339412926006,-161.85998423499404,0.60699462890625,0.427978515625,0.387939453125,-0.5457763671875,16.113245475250537,69.73744130030686,-72.64932475276119,2.938798186592433,,,,3,0,3,3
1788945332.8454044,421047258.0,-8.99609375,0.76953125,2.9921875,0.046875,-0.203125,-0.013671875,21.0625,-0.9375,-38.9375,21.0625,-0.9375,-38.9375,-0.04651871549555224,-0.5781512071097747,0.02674114538233944,0.8141634368907726,16.43089027484582,69.87283651697607,-161.9414674465177,0.60723876953125,0.427490234375,0.3873291015625,-0.54632568359375,16.009140751307704,69.63591180978446,-72.77924115192864,2.9071381294110608,,,,3,0,3,3
1788945332.8495154,421050464.0,-8.953125,0.73046875,2.9921875,0.048828125,-0.2109375,-0.015625,21.0625,-0.9375,-38.9375,21.0625,-0.9375,-38.9375,-0.046407070273081566,-0.5779322978691287,0.026669685063946652,0.8143275574404735,16.3657236444579,69.84718498823004,-162.00987683309336,0.60723876953125,0.427490234375,0.3873291015625,-0.54632568359375,16.009140751307704,69.63591180978446,-72.77924115192864,2.897875450062139,,,,3,0,3,3
1788945332.8534505,421054418.0,-8.99609375,0.76953125,2.9921875,0.048828125,-0.2109375,-0.015625,19.875,-1.1875,-40.4375,19.875,-1.1875,-40.4375,-0.046267014157244296,-0.5776834912633511,0.026610455580375128,0.8145139845187215,16.29526585405828,69.81779021674745,-162.0869133457311,0.60723876953125,0.427490234375,0.3873291015625,-0.54632568359375,16.009140751307704,69.63591180978446,-72.77924115192864,2.890237920482696,,,,3,0,2,3
1788945332.8514974,421060000.0,-8.9140625,0.73046875,3.03125,0.0703125,-0.220703125,-0.00390625,19.875,-1.1875,-40.4375,19.875,-1.1875,-40.4375,-0.0460424120086986,-0.5772778309702827,0.02655914146545855,0.8148159388299204,16.193498075789762,69.76876814615564,-162.20282217355643,0.6075439453125,0.4271240234375,0.38653564453125,-0.546875,15.966050166731582,69.52774781683695,-72.87016873975863,2.7456650020771005,,,,3,0,2,3
1788945332.8534505,421062307.0,-8.87890625,0.69140625,3.0703125,0.08203125,-0.234375,0.01171875,19.875,-1.1875,-40.4375,19.875,-1.1875,-40.4375,-0.045950973013551576,-0.577084712675513,0.026553060609297758,0.8149580832457628,16.152915539484514,69.74471811355436,-162.250371219663,0.6075439453125,0.4271240234375,0.38653564453125,-0.546875,15.966050166731582,69.52774781683695,-72.87016873975863,2.7441519636263796,,,,3,0,2,3
1788945332.865583,421066789.0,-8.8359375,0.69140625,3.1484375,0.083984375,-0.236328125,0.0234375,19.875,-1.1875,-40.4375,19.875,-1.1875,-40.4375,-0.04579320660754428,-0.5766569685632648,0.026552639966172655,0.8152696977975149,16.075018776070138,69.69027654363693,-162.34108591548,0.60784912109375,0.4267578125,0.38555908203125,-0.5474853515625,15.935152775612833,69.39206512204089,-72.9485137526213,2.7611124260159414,,,,3,0,2,3
1788945332.8671844,421071372.0,-8.8359375,0.69140625,3.18359375,0.08984375,-0.2421875,0.033203125,19.875,-1.1875,-40.4375,19.875,-1.1875,-40.4375,-0.04564479550778964,-0.5761944315875466,0.026579518464933602,0.81560410668947,16.00253183521136,69.63037580201747,-162.4278565252952,0.60784912109375,0.4267578125,0.38555908203125,-0.5474853515625,15.935152775612833,69.39206512204089,-72.9485137526213,2.7622550243062913,,,,3,0,2,3
1788945332.8724532,421074925.0,-8.8359375,0.76953125,3.22265625,0.08984375,-0.2421875,0.033203125,17.5625,-1.6875,-32.875,17.5625,-1.6875,-32.875,-0.045493164248653246,-0.5757840489262258,0.026668586918569236,0.8158994346612414,15.952109179598324,69.57622747553985,-162.49796503378698,0.60784912109375,0.4267578125,0.38555908203125,-0.5474853515625,15.935152775612833,69.39206512204089,-72.9485137526213,2.77209005187247,,,,3,0,3,3
1788945332.8724532,421077932.0,-8.8359375,0.76953125,3.22265625,0.087890625,-0.24609375,0.044921875,17.5625,-1.6875,-32.875,17.5625,-1.6875,-32.875,-0.04537687228853696,-0.5754368601533697,0.02674576156657698,0.8161482853479292,15.912361774580548,69.53014851139946,-162.55353125348014,0.60821533203125,0.42645263671875,0.384521484375,-0.54803466796875,15.94294021915309,69.25488015001004,-72.99136305770402,2.750212643348704,,,,3,0,3,3
1788945332.8705,421082038.0,-8.8359375,0.84765625,3.30078125,0.078125,-0.24609375,0.0546875,17.5625,-1.6875,-32.875,17.5625,-1.6875,-32.875,-0.04532463646213123,-0.574910002099896,0.026939430429673335,0.816516034075999,15.894842193632664,69.45623785835032,-162.5911234466794,0.60821533203125,0.42645263671875,0.384521484375,-0.54803466796875,15.94294021915309,69.25488015001004,-72.99136305770402,2.7720921013612205,,,,3,0,3,3
1788945332.8856406,421090397.0,-8.953125,0.8828125,3.33984375,0.0859375,-0.24609375,0.064453125,17.25,-0.0625,-34.375,17.25,-0.0625,-34.375,-0.045347375190761034,-0.5740181619404676,0.02704584466417506,0.8171384751755341,15.82807952311984,69.33369360320324,-162.66448422963862,0.60870361328125,0.4261474609375,0.38348388671875,-0.54852294921875,15.974435684652272,69.12489345975393,-73.01671537438406,2.543979370145612,,,,3,0,3,3
1788945332.8856406,421094080.0,-8.95703125,0.9609375,3.4140625,0.07421875,-0.23828125,0.0625,18.0625,-0.875,-33.6875,18.0625,-0.875,-33.6875,-0.04538511762985324,-0.5735852892747383,0.02713230827072004,0.8174374256621982,15.809787039946357,69.27300042821203,-162.68664452526176,0.60870361328125,0.4261474609375,0.38348388671875,-0.54852294921875,15.974435684652272,69.12489345975393,-73.01671537438406,2.556090774541034,,,,3,0,3,3
1788945332.8953862,421097786.0,-8.95703125,1.0,3.453125,0.068359375,-0.234375,0.07421875,18.0625,-0.875,-33.6875,18.0625,-0.875,-33.6875,-0.04545917204706849,-0.5731455225866086,0.027246900609484016,0.81773790423515,15.804604085583993,69.21012168419928,-162.6950161727094,0.60919189453125,0.42584228515625,0.38238525390625,-0.5489501953125,16.019301417167494,68.9750695707402,-73.0067585879168,2.5970518336890733,,,,3,0,3,3
1788945332.9008937,421102146.0,-8.99609375,1.0390625,3.453125,0.0625,-0.234375,0.0703125,17.1875,-1.25,-33.1875,17.1875,-1.25,-33.1875,-0.04556754074059052,-0.5726093470757025,0.02746964314506319,0.8180999655163635,15.822967815137188,69.13141410139801,-162.6858871810988,0.60919189453125,0.42584228515625,0.38238525390625,-0.5489501953125,16.019301417167494,68.9750695707402,-73.0067585879168,2.6253235933316446,,,,3,0,3,3
1788945332.901906,421105522.0,-8.95703125,1.078125,3.4921875,0.0625,-0.234375,0.0703125,17.1875,-1.25,-33.1875,17.1875,-1.25,-33.1875,-0.04565377179885338,-0.572194259171459,0.027657164371324535,0.8183792178145172,15.841429431451555,69.07014661083716,-162.67562543054248,0.60919189453125,0.42584228515625,0.38238525390625,-0.5489501953125,16.019301417167494,68.9750695707402,-73.0067585879168,2.6504252671395703,,,,3,0,3,3
1788945332.905835,421109705.0,-8.95703125,1.078125,3.4921875,0.056640625,-0.2265625,0.0703125,17.1875,-1.25,-33.1875,17.1875,-1.25,-33.1875,-0.0457701697809041,-0.5716930834569749,0.02787446102338743,0.8187155332032848,15.863457268147204,68.99615541625401,-162.6617360348669,0.60968017578125,0.42547607421875,0.38134765625,-0.54937744140625,16.041957872639752,68.827002697695,-73.01162487955509,2.715175089414099,,,,3,0,3,3
1788945332.905835,421113988.0,-8.95703125,1.078125,3.53125,0.046875,-0.216796875,0.068359375,17.25,-1.5,-34.875,17.25,-1.5,-34.875,-0.04588207438117875,-0.5711936027320307,0.028114214506084572,0.819049628771779,15.890532422937978,68.922038982536,-162.64502173520796,0.60968017578125,0.42547607421875,0.38134765625,-0.54937744140625,16.041957872639752,68.827002697695,-73.01162487955509,2.745943467604035,,,,3,0,3,3
1788945332.905835,421117394.0,-8.91796875,1.078125,3.53125,0.046875,-0.2109375,0.05859375,17.25,-1.5,-34.875,17.25,-1.5,-34.875,-0.04595756398383268,-0.5708045234076693,0.028291635269289336,0.8193104916597889,15.907127668884877,68.86474399292018,-162.636692573657,0.61016845703125,0.4251708984375,0.38043212890625,-0.5496826171875,16.08235485118279,68.69719999066082,-72.99089268284673,2.7757262481216425,,,,3,0,3,3
1788945332.9195304,421121554.0,-8.953125,1.078125,3.56640625,0.03515625,-0.197265625,0.056640625,16.8125,-2.1875,-33.375,16.8125,-2.1875,-33.375,-0.04603275943645152,-0.5703665154196518,0.028566862993941348,0.8196017066144966,15.943263845952245,68.79887741598397,-162.6168910258233,0.61016845703125,0.4251708984375,0.38043212890625,-0.5496826171875,16.08235485118279,68.69719999066082,-72.99089268284673,2.8092129343934094,,,,3,0,3,3
1788945332.9195304,421126060.0,-8.953125,1.078125,3.60546875,0.04296875,-0.1875,0.046875,16.8125,-2.1875,-33.375,16.8125,-2.1875,-33.375,-0.04608405660485972,-0.5699056185600824,0.028852355688759244,0.8199093774507641,15.975287821934867,68.73021431188667,-162.60401495866535,0.61065673828125,0.42486572265625,0.37957763671875,-0.54998779296875,16.116453591291343,68.57949988312465,-72.98244662769704,2.7405972253329,,,,3,0,3,3
1788945332.9155953,421131043.0,-8.95703125,1.078125,3.68359375,0.03125,-0.17578125,0.041015625,16.8125,-2.1875,-33.375,16.8125,-2.1875,-33.375,-0.0461411468447384,-0.5694102816831645,0.029108770212474645,0.8202411871992706,15.997164250962,68.65746576669747,-162.598405277948,0.61065673828125,0.42486572265625,0.37957763671875,-0.54998779296875,16.116453591291343,68.57949988312465,-72.98244662769704,2.7731627433026707,,,,3,0,3,3
1788945332.9195304,421132619.0,-8.95703125,1.0390625,3.64453125,0.03125,-0.17578125,0.041015625,20.3125,-2.0,-39.8125,20.3125,-2.0,-39.8125,-0.04616072123620325,-0.5692501805385104,0.02916307189397802,0.8203492762290545,15.997191815570966,68.6345341080397,-162.60118846406104,0.61065673828125,0.42486572265625,0.37957763671875,-0.54998779296875,16.116453591291343,68.57949988312465,-72.98244662769704,2.7808101352155554,,,,3,0,2,3
1788945332.9360938,421137502.0,-8.9140625,1.0390625,3.60546875,0.0234375,-0.16015625,0.033203125,20.3125,-2.0,-39.8125,20.3125,-2.0,-39.8125,-0.04622216404773478,-0.5687854785761333,0.029308046470412425,0.8206629206463221,15.994910509011522,68.56816565705996,-162.61020546932778,0.61102294921875,0.424560546875,0.37890625,-0.55029296875,16.11666333815267,68.48259576630375,-73.00274908314974,2.730652060070699,,,,3,0,2,3
1788945332.9321587,421140708.0,-8.9140625,1.078125,3.56640625,0.03125,-0.15234375,0.029296875,20.3125,-2.0,-39.8125,20.3125,-2.0,-39.8125,-0.04626668934749933,-0.5684952394475004,0.029430072141504705,0.8208571294909346,16.002490576856232,68.5259517306025,-162.60892016203826,0.61102294921875,0.424560546875,0.37890625,-0.55029296875,16.11666333815267,68.48259576630375,-73.00274908314974,2.747449050231302,,,,3,0,2,3
1788945332.9360938,421144461.0,-8.83984375,1.078125,3.68359375,0.03125,-0.15234375,0.029296875,19.625,-4.0,-40.375,19.625,-4.0,-40.375,-0.04627414602116873,-0.5681827973375759,0.02966649068485784,0.8210644990194764,16.030161212872624,68.47910759335034,-162.60002761428584,0.61102294921875,0.424560546875,0.37890625,-0.55029296875,16.11666333815267,68.48259576630375,-73.00274908314974,2.7779090734163745,,,,3,0,2,3
1788945332.9341407,421149844.0,-8.7578125,1.078125,3.76171875,0.03515625,-0.146484375,0.021484375,19.625,-4.0,-40.375,19.625,-4.0,-40.375,-0.046263845033086226,-0.5677335506288191,0.02997526092788631,0.8213645693998821,16.058464921808614,68.41283154152032,-162.59789442532997,0.611328125,0.42431640625,0.3782958984375,-0.55059814453125,16.118851014696197,68.40077988077782,-73.02942025843208,2.686411698227527,,,,3,0,2,3
1788945332.951908,421153327.0,-8.7265625,1.11328125,3.8359375,0.029296875,-0.12890625,0.0078125,19.625,-4.0,-40.375,19.625,-4.0,-40.375,-0.04624842968929817,-0.567464614187754,0.030143513828386866,0.8215451070818299,16.0696640806224,68.37369429036383,-162.60176010261085,0.611328125,0.42431640625,0.3782958984375,-0.55059814453125,16.118851014696197,68.40077988077782,-73.02942025843208,2.7094338012441668,,,,3,0,2,3
1788945332.9569802,421156633.0,-8.7578125,1.15234375,3.76171875,0.021484375,-0.103515625,0.0,19.625,-4.0,-40.375,19.625,-4.0,-40.375,-0.04623610738129944,-0.5672513388849202,0.030298722883769138,0.8216873665203226,16.083972752325923,68.34221225126576,-162.60120350258964,0.61151123046875,0.42413330078125,0.3778076171875,-0.55084228515625,16.116091062690906,68.33035251119847,-73.04734198011442,2.775252691168165,,,,3,0,2,3
1788945332.961182,421161216.0,-8.73046875,1.15234375,3.796875,0.01953125,-0.0859375,-0.013671875,19.625,-4.0,-40.375,19.625,-4.0,-40.375,-0.04619686184565955,-0.5669849494707656,0.030482203446364643,0.821866626833272,16.095217745665035,68.30357673953169,-162.6082503614992,0.61151123046875,0.42413330078125,0.3778076171875,-0.55084228515625,16.116091062690906,68.33035251119847,-73.04734198011442,2.799234177251672,,,,3,0,2,3
1788945332.9631352,421164769.0,-8.7578125,1.15234375,3.796875,0.01953125,-0.0859375,-0.013671875,19.75,-3.375,-39.6875,19.75,-3.375,-39.6875,-0.04617304071956618,-0.5667707770340069,0.030606587457066015,0.8220110543144844,16.0997921871894,68.2728545462606,-162.61583800669214,0.61151123046875,0.42413330078125,0.3778076171875,-0.55084228515625,16.116091062690906,68.33035251119847,-73.04734198011442,2.8162193614511404,,,,3,0,2,3
1788945332.9673088,421168952.0,-8.80078125,1.15234375,3.796875,0.01953125,-0.072265625,-0.021484375,19.75,-3.375,-39.6875,19.75,-3.375,-39.6875,-0.0461320983163529,-0.5665435848638845,0.030745314162308274,0.8221647776520044,16.103716922840146,68.24043352437397,-162.62666917925955,0.61163330078125,0.4239501953125,0.37750244140625,-0.55108642578125,16.08760261267604,68.28759928639217,-73.0962383794833,2.743906377835114,,,,3,0,2,3
1788945332.9707398,421172082.0,-8.80078125,1.15234375,3.72265625,0.009765625,-0.046875,-0.021484375,19.75,-3.375,-39.6875,19.75,-3.375,-39.6875,-0.04611299657179659,-0.5664109403134973,0.030846776691350608,0.8222534369694682,16.111916362611698,68.22098954084342,-162.62837719148706,0.61163330078125,0.4239501953125,0.37750244140625,-0.55108642578125,16.08760261267604,68.28759928639217,-73.0962383794833,2.7576010818496113,,,,3,0,2,3
1788945332.9784124,421176641.0,-8.8359375,1.15234375,3.76171875,-0.00390625,-0.033203125,-0.03125,16.5,-3.125,-33.5,16.5,-3.125,-33.5,-0.04607785875694604,-0.5662466535828802,0.030963718603528763,0.8223641567874941,16.117977495655133,68.19731455598131,-162.63481595731636,0.61163330078125,0.42376708984375,0.37738037109375,-0.55126953125,16.0325639210069,68.25727158718276,-73.14965387809788,2.8819381396392716,,,,3,0,3,3
1788945332.9790156,421180547.0,-8.875,1.078125,3.796875,-0.015625,-0.021484375,-0.0390625,16.5,-3.125,-33.5,16.5,-3.125,-33.5,-0.046035934414407675,-0.5661162333101818,0.031021161887584844,0.8224541267696505,16.11165093268492,68.17952982062207,-162.64930552422706,0.61163330078125,0.42376708984375,0.37738037109375,-0.55126953125,16.0325639210069,68.25727158718276,-73.14965387809788,2.8900053541542854,,,,3,0,3,3
1788945332.9829507,421183800.0,-8.875,1.078125,3.796875,-0.015625,-0.021484375,-0.0390625,16.8125,-2.1875,-33.375,16.8125,-2.1875,-33.375,-0.0460132106794802,-0.5659929334620087,0.031013059288982753,0.8225405606215257,16.093008090428896,68.16368612881374,-162.66912197021796,0.61163330078125,0.42376708984375,0.37738037109375,-0.55126953125,16.0325639210069,68.25727158718276,-73.14965387809788,2.89074448795466,,,,3,0,3,3
1788945332.9869504,421187707.0,-8.8359375,1.078125,3.72265625,-0.017578125,-0.0078125,-0.046875,16.8125,-2.1875,-33.375,16.8125,-2.1875,-33.375,-0.04598000851840603,-0.5658691250324712,0.031002469275879647,0.822627995542597,16.071975417520562,68.1480275151132,-162.69198816309725,0.61163330078125,0.423583984375,0.37744140625,-0.5513916015625,15.966261006340481,68.25359003235823,-73.21370043981359,2.8517341914613543,,,,3,0,3,3
1788945332.9930038,421192189.0,-8.83984375,1.078125,3.68359375,-0.02734375,0.0078125,-0.052734375,16.8125,-2.1875,-33.375,16.8125,-2.1875,-33.375,-0.045947356289351135,-0.5657576743050237,0.030974724895425507,0.8227075184004599,16.048089324111324,68.13436077594119,-162.71625083898346,0.61163330078125,0.423583984375,0.37744140625,-0.5513916015625,15.966261006340481,68.25359003235823,-73.21370043981359,2.850078118634302,,,,3,0,3,3
1788945332.9959571,421195972.0,-8.76171875,1.078125,3.64453125,-0.03125,0.021484375,-0.056640625,16.875,-3.625,-33.5,16.875,-3.625,-33.5,-0.04589668781324717,-0.5657238499500588,0.03102397317585891,0.8227317501675988,16.04836116373021,68.12980442531588,-162.72421580738342,0.61151123046875,0.4234619140625,0.37762451171875,-0.55145263671875,15.89474326925432,68.2611485195579,-73.26911321954618,2.9879952447555187,,,,3,0,3,3
1788945332.998014,421200579.0,-8.796875,1.0390625,3.64453125,-0.03125,0.02734375,-0.05859375,16.875,-3.625,-33.5,16.875,-3.625,-33.5,-0.045822042395836836,-0.5656930422295626,0.031079889051997604,0.8227549835159019,16.046604689042322,68.12597484551397,-162.73673986155197,0.61151123046875,0.4234619140625,0.37762451171875,-0.55145263671875,15.89474326925432,68.2611485195579,-73.26911321954618,2.9943069903063044,,,,3,0,3,3
1788945333.001949,421203332.0,-8.83984375,1.0390625,3.68359375,-0.03125,0.02734375,-0.05859375,17.4375,-2.8125,-34.0,17.4375,-2.8125,-34.0,-0.04578530103932499,-0.5656539928317529,0.0310798334547728,0.8227838783998245,16.036430211360166,68.12147268985781,-162.74993287691424,0.61151123046875,0.4234619140625,0.37762451171875,-0.55145263671875,15.89474326925432,68.2611485195579,-73.26911321954618,2.9947346037157456,,,,3,0,3,3
1788945333.001949,421207338.0,-8.83984375,1.078125,3.64453125,-0.02734375,0.04296875,-0.064453125,17.4375,-2.8125,-34.0,17.4375,-2.8125,-34.0,-0.04572913755782986,-0.5656342128364801,0.031099248654951842,0.8227998662980993,16.02984400208774,68.11951279544176,-162.76275280715592,0.61138916015625,0.42333984375,0.37799072265625,-0.551513671875,15.804742758356952,68.30336484780094,-73.35880629388903,2.8345089929609144,,,,3,0,3,3
1788945333.0083964,421211597.0,-8.8359375,1.078125,3.60546875,-0.0390625,0.0546875,-0.064453125,17.75,-2.8125,-33.9375,17.75,-2.8125,-33.9375,-0.04568735382757555,-0.5656394142595276,0.031109183179090567,0.8227982361784099,16.025882158743002,68.12080526866814,-162.7709857328061,0.61138916015625,0.42333984375,0.37799072265625,-0.551513671875,15.804742758356952,68.30336484780094,-73.35880629388903,2.8353602819528905,,,,3,0,3,3
1788945333.0151672,421215904.0,-8.8359375,1.0390625,3.60546875,-0.041015625,0.052734375,-0.0703125,17.75,-2.8125,-33.9375,17.75,-2.8125,-33.9375,-0.04562507644903546,-0.5656352884581739,0.031100367841779462,0.8228048614160979,16.01288912623208,68.12163319608916,-162.7883928070385,0.6112060546875,0.4232177734375,0.37835693359375,-0.551513671875,15.713689015727377,68.33043921717776,-73.42251189842236,2.991729208593221,,,,3,0,3,3
1788945333.0157483,421220833.0,-8.83984375,1.0390625,3.53125,-0.041015625,0.052734375,-0.0703125,17.75,-2.8125,-33.9375,17.75,-2.8125,-33.9375,-0.04555409661401308,-0.5656578465666711,0.031126608348079093,0.8227922940523827,16.009894686881864,68.12546645169138,-162.79941878779735,0.6112060546875,0.4232177734375,0.37835693359375,-0.551513671875,15.713689015727377,68.33043921717776,-73.42251189842236,2.993935888743524,,,,3,0,3,3
1788945333.0177014,421223239.0,-8.9140625,1.0,3.56640625,-0.04296875,0.060546875,-0.076171875,17.0,-0.9375,-34.1875,17.0,-0.9375,-34.1875,-0.0455288008772124,-0.5656835871120122,0.030932712906861646,0.822783309769341,15.960196642792198,68.13337596990432,-162.8352180182129,0.6112060546875,0.4232177734375,0.37835693359375,-0.551513671875,15.713689015727377,68.33043921717776,-73.42251189842236,2.9710708602604394,,,,3,0,3,3
1788945333.031505,421227146.0,-8.91796875,1.0,3.4921875,-0.046875,0.068359375,-0.07421875,17.0,-0.9375,-34.1875,17.0,-0.9375,-34.1875,-0.045501373641424606,-0.5657731847881058,0.03058661234952217,0.8227361591156958,15.878855096631774,68.15296435432987,-162.89029973252886,0.6109619140625,0.423095703125,0.37884521484375,-0.551513671875,15.602262949832093,68.37350006653152,-73.50652981726815,3.054534621088426,,,,3,0,3,3
1788945333.0294652,421231529.0,-8.87890625,0.9609375,3.453125,-0.044921875,0.0703125,-0.078125,17.0,-0.9375,-34.1875,17.0,-0.9375,-34.1875,-0.0454437479645007,-0.5658934393521056,0.03018785993475368,0.8226713646297308,15.78238685708087,68.17827645075904,-162.9586689062141,0.6109619140625,0.423095703125,0.37884521484375,-0.551513671875,15.602262949832093,68.37350006653152,-73.50652981726815,3.0072861229995294,,,,3,0,3,3
1788945333.0334582,421235482.0,-8.9140625,0.921875,3.4140625,-0.044921875,0.0703125,-0.078125,20.4375,-1.9375,-39.125,20.4375,-1.9375,-39.125,-0.04532518318085253,-0.5660484926648924,0.029835867340142878,0.8225840703183394,15.690716134334789,68.20840796576553,-163.0311406833474,0.6109619140625,0.423095703125,0.37884521484375,-0.551513671875,15.602262949832093,68.37350006653152,-73.50652981726815,2.9643814629256338,,,,3,0,3,3
1788945333.031505,421240664.0,-8.9140625,0.921875,3.375,-0.0390625,0.07421875,-0.07421875,20.4375,-1.9375,-39.125,20.4375,-1.9375,-39.125,-0.04518040901639352,-0.566321784391947,0.029448271605927983,0.822417878249042,15.597553399969938,68.2555357548428,-163.1043681411072,0.6107177734375,0.42303466796875,0.37933349609375,-0.551513671875,15.505933605862321,68.42705689571329,-73.58901684399716,2.9198768528375205,,,,3,0,3,3
1788945333.0334582,421243171.0,-8.9140625,0.921875,3.4140625,-0.046875,0.07421875,-0.072265625,20.4375,-1.9375,-39.125,20.4375,-1.9375,-39.125,-0.045113381401868366,-0.5664178131518202,0.029224609750911987,0.8223634026072087,15.540167888590586,68.27415914694558,-163.14886990879143,0.6107177734375,0.42303466796875,0.37933349609375,-0.551513671875,15.505933605862321,68.42705689571329,-73.58901684399716,2.8923240536747277,,,,3,0,3,3
1788945333.0334582,421246877.0,-8.91796875,0.80859375,3.4140625,-0.04296875,0.072265625,-0.068359375,20.4375,-1.9375,-39.125,20.4375,-1.9375,-39.125,-0.04497325709175523,-0.5665398068007983,0.028917109742283474,0.8222979108697926,15.452029926039536,68.29929252130637,-163.2232530315215,0.6104736328125,0.4229736328125,0.37982177734375,-0.55145263671875,15.416196905093829,68.4726027050201,-73.64856637311091,3.0080924297793956,,,,3,0,3,3
1788945333.046321,421251107.0,-8.83984375,0.73046875,3.33984375,-0.04296875,0.072265625,-0.068359375,20.4375,-1.9375,-39.125,20.4375,-1.9375,-39.125,-0.04480575024420297,-0.5667045503769664,0.02857724422332378,0.8222054113417734,15.355284261966643,68.33127285239512,-163.30584911970612,0.6104736328125,0.4229736328125,0.37982177734375,-0.55145263671875,15.416196905093829,68.4726027050201,-73.64856637311091,2.9670187467935825,,,,3,0,3,3
1788945333.050314,421254813.0,-8.8359375,0.84765625,3.30078125,-0.03515625,0.072265625,-0.05859375,20.375,-1.9375,-39.4375,20.375,-1.9375,-39.4375,-0.0446962328029402,-0.5669028363061995,0.028348281528482868,0.8220825967599568,15.29930249235157,68.36443291909974,-163.35205072990053,0.6104736328125,0.4229736328125,0.37982177734375,-0.55145263671875,15.416196905093829,68.4726027050201,-73.64856637311091,2.93803488356786,,,,3,0,2,3
1788945333.0483608,421260396.0,-8.91796875,0.9609375,3.30078125,-0.029296875,0.0703125,-0.052734375,20.375,-1.9375,-39.4375,20.375,-1.9375,-39.4375,-0.04465439881184129,-0.5672310346037873,0.028214026841273936,0.821863070552796,15.29152890755337,68.41186817780167,-163.3523067462843,0.61029052734375,0.42291259765625,0.38031005859375,-0.55145263671875,15.326909956281131,68.53351405482982,-73.73499797666125,2.7450671695635367,,,,3,0,2,3
1788945333.0612633,421262702.0,-8.953125,1.0,3.33984375,-0.03125,0.072265625,-0.048828125,20.375,-1.9375,-39.4375,20.375,-1.9375,-39.4375,-0.044666623539223224,-0.5673581235366796,0.02819380557393395,0.8217753718175075,15.301339516538567,68.42908264037267,-163.33985844926642,0.61029052734375,0.42291259765625,0.38031005859375,-0.55145263671875,15.326909956281131,68.53351405482982,-73.73499797666125,2.7406033218142327,,,,3,0,2,3
1788945333.0649354,421266608.0,-8.95703125,1.0390625,3.30078125,-0.0234375,0.0703125,-0.05859375,20.375,-1.9375,-39.4375,20.375,-1.9375,-39.4375,-0.04466442759237171,-0.5675676395632417,0.02817168004003414,0.8216315596860785,15.316569022007066,68.45765161203731,-163.32304949372542,0.61004638671875,0.4229736328125,0.38067626953125,-0.5513916015625,15.280255427887502,68.57689226132909,-73.76790248765644,2.8477345586069154,,,,3,0,2,3
1788945333.0629823,421270838.0,-8.9921875,0.9609375,3.26171875,-0.0234375,0.0703125,-0.05859375,20.375,-1.9375,-39.4375,20.375,-1.9375,-39.4375,-0.044604766716267716,-0.5678177381508878,0.02806946990157584,0.8214654806422738,15.305971699871366,68.49432744586532,-163.33022000588664,0.61004638671875,0.4229736328125,0.38067626953125,-0.5513916015625,15.280255427887502,68.57689226132909,-73.76790248765644,2.831756208082013,,,,3,0,2,3
1788945333.0649354,421274144.0,-8.953125,0.9609375,3.26171875,-0.02734375,0.0625,-0.05859375,16.6875,-2.375,-34.375,16.6875,-2.375,-34.375,-0.044544715521560745,-0.5679608620828219,0.028098659910470163,0.8213687921831925,15.317582428744188,68.51404186329093,-163.326014410263,0.61004638671875,0.4229736328125,0.38067626953125,-0.5513916015625,15.280255427887502,68.57689226132909,-73.76790248765644,2.8328202125200557,,,,3,0,3,3
1788945333.0786142,421278050.0,-8.9140625,0.8828125,3.22265625,-0.0390625,0.0546875,-0.05859375,16.6875,-2.375,-34.375,16.6875,-2.375,-34.375,-0.04445487686151394,-0.5681335699750255,0.028081038098645837,0.821254811791056,15.315301531446428,68.53921236794415,-163.3343079803428,0.60986328125,0.42291259765625,0.381103515625,-0.55133056640625,15.203792867237105,68.61815177092755,-73.81983870878325,2.9102903297282308,,,,3,0,3,3
1788945333.0805674,421281633.0,-8.875,0.921875,3.18359375,-0.025390625,0.05078125,-0.05078125,16.875,-3.625,-33.5,16.875,-3.625,-33.5,-0.04438584743611262,-0.5682487512384666,0.028147372593066346,0.8211765819112284,15.331938593591184,68.55460654051204,-163.32886930379541,0.60986328125,0.42291259765625,0.381103515625,-0.55133056640625,15.203792867237105,68.61815177092755,-73.81983870878325,2.9160124337747417,,,,3,0,3,3
1788945333.0805674,421286216.0,-8.87890625,0.921875,3.22265625,-0.03125,0.044921875,-0.04296875,16.875,-3.625,-33.5,16.875,-3.625,-33.5,-0.0443186319462351,-0.5683728982091578,0.02823952880829731,0.8210911255496688,15.356343605400605,68.5706542036851,-163.317643468742,0.60968017578125,0.4228515625,0.3814697265625,-0.55133056640625,15.126413009833499,68.65584995416191,-73.8838780865665,2.9529898191714365,,,,3,0,3,3
1788945333.0786142,421290169.0,-8.87890625,0.921875,3.22265625,-0.03125,0.044921875,-0.04296875,16.875,-3.625,-33.5,16.875,-3.625,-33.5,-0.04426045696846732,-0.568479326122334,0.02831936856045456,0.8210178323792833,15.377404874211983,68.58440563806404,-163.3079943548579,0.60968017578125,0.4228515625,0.3814697265625,-0.55133056640625,15.126413009833499,68.65584995416191,-73.8838780865665,2.960497654156171,,,,3,0,3,3
1788945333.0805674,421294252.0,-8.875,0.921875,3.18359375,-0.03515625,0.02734375,-0.041015625,17.6875,-1.375,-33.8125,17.6875,-1.375,-33.8125,-0.044238630345692614,-0.5686439654750794,0.02813875498781729,0.8209111977440979,15.344768141076058,68.61051417440632,-163.32759311732102,0.60968017578125,0.4228515625,0.3814697265625,-0.55133056640625,15.126413009833499,68.65584995416191,-73.8838780865665,2.9376727964737577,,,,3,0,3,3
1788945333.0944467,421298058.0,-8.9140625,0.921875,3.18359375,-0.029296875,0.025390625,-0.0390625,17.6875,-1.375,-33.8125,17.6875,-1.375,-33.8125,-0.04421377711747474,-0.5687955761020915,0.027987212496322484,0.8208126768370367,15.317589624736332,68.63434974222002,-163.34437656105334,0.60955810546875,0.42279052734375,0.3817138671875,-0.55133056640625,15.069515529681423,68.67745870455444,-73.92741378064116,2.97644005075898,,,,3,0,3,3
1788945333.09449,421301764.0,-8.91796875,0.8828125,3.18359375,-0.037109375,0.0234375,-0.0390625,17.6875,-1.375,-33.8125,17.6875,-1.375,-33.8125,-0.04418228802915399,-0.5689355251422982,0.027809656415814538,0.8207234105748419,15.281436520066448,68.65726329021342,-163.36853540411144,0.60955810546875,0.42279052734375,0.3817138671875,-0.55133056640625,15.069515529681423,68.67745870455444,-73.92741378064116,2.9545868624712472,,,,3,0,3,3
1788945333.106316,421305847.0,-8.91796875,0.9609375,3.18359375,-0.033203125,0.009765625,-0.037109375,17.6875,0.5625,-33.625,17.6875,0.5625,-33.625,-0.044191058597837944,-0.5690149279977029,0.02752741858871724,0.8206774051243356,15.219435721845583,68.67339568152462,-163.40657599838872,0.6094970703125,0.42266845703125,0.3819580078125,-0.55126953125,15.011928757167542,68.687673653537,-73.95239870542171,3.0794225987287236,,,,3,0,3,3
1788945333.1085622,421310730.0,-8.9140625,0.9609375,3.22265625,-0.02734375,0.0078125,-0.0390625,17.6875,0.5625,-33.625,17.6875,0.5625,-33.625,-0.044192626426307176,-0.5690955400288458,0.027192054258303035,0.8206326037113288,15.14275231486957,68.69087012002211,-163.4555167711837,0.6094970703125,0.42266845703125,0.3819580078125,-0.55126953125,15.011928757167542,68.687673653537,-73.95239870542171,3.0420974854936174,,,,3,0,3,3
1788945333.1124973,421313483.0,-8.91796875,0.921875,3.22265625,-0.02734375,0.0078125,-0.0390625,16.5,-2.6875,-33.4375,16.5,-2.6875,-33.4375,-0.04415536547129863,-0.5691398441085004,0.027248101789266888,0.8206020244290956,15.155047912952897,68.6963865529759,-163.45092764768427,0.6094970703125,0.42266845703125,0.3819580078125,-0.55126953125,15.011928757167542,68.687673653537,-73.95239870542171,3.047605035936344,,,,3,0,3,3
1788945333.1124973,421317389.0,-8.9140625,0.8828125,3.22265625,-0.025390625,0.001953125,-0.046875,16.5,-2.6875,-33.4375,16.5,-2.6875,-33.4375,-0.04407283270210036,-0.5691971792881935,0.027316788739129693,0.8205644091483365,15.164057672441487,68.7042291721759,-163.45440452577063,0.6094970703125,0.4224853515625,0.38214111328125,-0.55133056640625,14.938843375072853,68.69916826289197,-74.0178220469794,2.96873388360424,,,,3,0,3,3
1788945333.1151097,421321872.0,-8.953125,0.8828125,3.22265625,-0.017578125,-0.001953125,-0.048828125,16.5,-2.6875,-33.4375,16.5,-2.6875,-33.4375,-0.04396338542867365,-0.5692621793763435,0.027401886698139217,0.8205223509927856,15.173366162977887,68.71326852059855,-163.46115732419258,0.6094970703125,0.4224853515625,0.38214111328125,-0.55133056640625,14.938843375072853,68.69916826289197,-74.0178220469794,2.977349833963618,,,,3,0,3,3
1788945333.1195366,421325525.0,-8.95703125,0.84765625,3.26171875,-0.017578125,-0.001953125,-0.048828125,17.375,-1.375,-33.875,17.375,-1.375,-33.875,-0.04387573754569687,-0.569348480286001,0.027208511545059856,0.820473597716797,15.117781384707671,68.73030122450497,-163.5080629655996,0.6094970703125,0.4224853515625,0.38214111328125,-0.55133056640625,14.938843375072853,68.69916826289197,-74.0178220469794,2.954382609490478,,,,3,0,3,3
1788945333.1263113,421330708.0,-8.95703125,0.80859375,3.30078125,-0.013671875,-0.005859375,-0.04296875,17.375,-1.375,-33.875,17.375,-1.375,-33.875,-0.04372614704107475,-0.5694209497677762,0.02690183913411045,0.820441403807553,15.021129940719463,68.74882229323026,-163.5918049957748,0.609375,0.42236328125,0.38232421875,-0.55145263671875,14.858399740441536,68.7146901996671,-74.0991008210022,2.8929118164639984,,,,3,0,3,3
1788945333.1282644,421333514.0,-8.953125,0.80859375,3.33984375,-0.0078125,-0.01171875,-0.041015625,17.375,-1.375,-33.875,17.375,-1.375,-33.875,-0.04363856156836734,-0.5694299691593767,0.026730982001881783,0.8204453917041706,14.963325491410771,68.75498269583532,-163.6427579068613,0.609375,0.42236328125,0.38232421875,-0.55145263671875,14.858399740441536,68.7146901996671,-74.0991008210022,2.8728427179358613,,,,3,0,3,3
1788945333.1344495,421337221.0,-8.91796875,0.8828125,3.375,-0.009765625,-0.009765625,-0.029296875,17.375,-1.375,-33.875,17.375,-1.375,-33.875,-0.04360522188898527,-0.5693723625176103,0.026522916485166272,0.8204938953619632,14.898744876896512,68.75192091306961,-163.69292576741879,0.60931396484375,0.4222412109375,0.38238525390625,-0.551513671875,14.805886270097083,68.70595102360782,-74.13582254862324,3.0061064798503194,,,,3,0,3,3
1788945333.1324964,421340674.0,-8.87890625,0.8828125,3.375,-0.009765625,-0.009765625,-0.029296875,17.375,-1.375,-33.875,17.375,-1.375,-33.875,-0.0435838182767964,-0.5692952588087105,0.026355906487701777,0.8205539136921779,14.844766388933463,68.74520328300048,-163.73488368454608,0.60931396484375,0.4222412109375,0.38238525390625,-0.551513671875,14.805886270097083,68.70595102360782,-74.13582254862324,2.9883561775304797,,,,3,0,3,3
1788945333.1443858,421345057.0,-8.875,0.921875,3.4140625,-0.00390625,-0.005859375,-0.029296875,20.25,-2.0625,-40.125,20.25,-2.0625,-40.125,-0.043563319345825864,-0.5691790203776242,0.0264517674518563,0.8206325511263945,14.854008997430565,68.72805924375699,-163.73519519563686,0.60931396484375,0.4222412109375,0.38238525390625,-0.551513671875,14.805886270097083,68.70595102360782,-74.13582254862324,2.9998875827664144,,,,3,0,2,3
1788945333.1443858,421348763.0,-8.87890625,0.8828125,3.453125,0.0,-0.009765625,-0.0234375,20.25,-2.0625,-40.125,20.25,-2.0625,-40.125,-0.0435201222740212,-0.569056109943706,0.02648238502812952,0.8207190907833282,14.84205202093289,68.7117012160792,-163.75320059814868,0.60931396484375,0.42218017578125,0.3824462890625,-0.55157470703125,14.776746849223866,68.7151970427943,-74.17344131536188,2.874571497452539,,,,3,0,2,3
1788945333.1443858,421352746.0,-8.83984375,0.8828125,3.453125,-0.001953125,-0.009765625,-0.021484375,19.5,-1.6875,-40.8125,19.5,-1.6875,-40.8125,-0.04349367255253161,-0.5689233187535105,0.02643655055076955,0.8208140268181101,14.812594906946064,68.69520669189544,-163.78102131169507,0.60931396484375,0.42218017578125,0.3824462890625,-0.55157470703125,14.776746849223866,68.7151970427943,-74.17344131536188,2.8706958012173818,,,,3,0,2,3
1788945333.1443858,421356252.0,-8.83984375,0.8828125,3.4921875,-0.001953125,-0.0078125,-0.0234375,19.5,-1.6875,-40.8125,19.5,-1.6875,-40.8125,-0.04346753526109232,-0.56880895921249,0.02639797772744477,0.8208959057455646,14.786911102162808,68.68104157271281,-163.8056470013029,0.6092529296875,0.422119140625,0.3824462890625,-0.5516357421875,14.74626169545716,68.70533624735975,-74.19620331376579,3.0032178059826977,,,,3,0,2,3
1788945333.1565232,421360682.0,-8.8359375,0.921875,3.453125,-0.001953125,-0.0078125,-0.0234375,19.5,-1.6875,-40.8125,19.5,-1.6875,-40.8125,-0.04346767915252623,-0.5686656320453117,0.026393812449402414,0.8209953267004538,14.771675392945246,68.66184125192845,-163.8204829661351,0.6092529296875,0.422119140625,0.3824462890625,-0.5516357421875,14.74626169545716,68.70533624735975,-74.19620331376579,3.004492337612047,,,,3,0,2,3
1788945333.1604583,421363988.0,-8.83984375,0.9609375,3.453125,0.0,-0.001953125,-0.015625,20.4375,-1.9375,-39.125,20.4375,-1.9375,-39.125,-0.04349092523181252,-0.5685774670284499,0.026458255979663062,0.8210530823890179,14.783325408285345,68.6483160107486,-163.81219885411534,0.6092529296875,0.422119140625,0.3824462890625,-0.5516357421875,14.74626169545716,68.70533624735975,-74.19620331376579,3.0127725748822245,,,,3,0,2,3
1788945333.1585052,421368671.0,-8.83984375,0.9609375,3.453125,0.001953125,0.0,-0.0078125,20.4375,-1.9375,-39.125,20.4375,-1.9375,-39.125,-0.04353682147062438,-0.5684558830014659,0.02656273340057066,0.8211314605174673,14.805717334555231,68.62911440197487,-163.79459340528913,0.60919189453125,0.422119140625,0.38250732421875,-0.55169677734375,14.724737808356597,68.71783610574319,-74.22893473412763,2.9444360046622413,,,,3,0,2,3
1788945333.1604583,421372454.0,-8.87890625,0.9609375,3.453125,0.0,0.001953125,-0.013671875,17.1875,-2.6875,-33.375,17.1875,-2.6875,-33.375,-0.04351992521658102,-0.5684155571747945,0.026727027133570943,0.8211549406119484,14.840475775398057,68.62079285984537,-163.7747577063774,0.60919189453125,0.422119140625,0.38250732421875,-0.55169677734375,14.724737808356597,68.71783610574319,-74.22893473412763,2.9635268398483086,,,,3,0,3,3
1788945333.1765952,421375860.0,-8.875,0.921875,3.453125,0.0078125,0.009765625,-0.017578125,17.1875,-2.6875,-33.375,17.1875,-2.6875,-33.375,-0.0434805061234529,-0.5683867820128498,0.02687893383209183,0.8211719884021712,14.869343701487882,68.61466690725227,-163.76165371766513,0.60919189453125,0.422119140625,0.38250732421875,-0.5517578125,14.717608200862838,68.7259716520646,-74.25258884506687,2.8287626024827315,,,,3,0,3,3
1788945333.1790612,421380943.0,-8.87890625,0.8828125,3.453125,0.01171875,0.01953125,-0.021484375,17.1875,-2.6875,-33.375,17.1875,-2.6875,-33.375,-0.04338719668748465,-0.5683594363622075,0.027101340207729366,0.8211885408483123,14.9069340652549,68.60832310695017,-163.75008514462647,0.60919189453125,0.422119140625,0.38250732421875,-0.5517578125,14.717608200862838,68.7259716520646,-74.25258884506687,2.8553293946494636,,,,3,0,3,3
1788945333.1810143,421383996.0,-8.87890625,0.9609375,3.453125,0.01171875,0.01953125,-0.021484375,17.375,-0.875,-33.8125,17.375,-0.875,-33.8125,-0.043402639703861844,-0.5683368857774516,0.026988296135984708,0.8212070548912748,14.878705672320951,68.60722096111778,-163.7677151551732,0.60919189453125,0.422119140625,0.38250732421875,-0.5517578125,14.717608200862838,68.7259716520646,-74.25258884506687,2.8422700487771135,,,,3,0,3,3
1788945333.187302,421387902.0,-8.87890625,1.0,3.4140625,0.009765625,0.017578125,-0.013671875,17.375,-0.875,-33.8125,17.375,-0.875,-33.8125,-0.04348615546075155,-0.5683256332624455,0.026857219423915626,0.821214721388322,14.858748071126044,68.6067693645165,-163.76997491619343,0.60906982421875,0.422119140625,0.382568359375,-0.5517578125,14.6953249208904,68.72296576565282,-74.25880331774965,3.0608351244653176,,,,3,0,3,3
1788945333.1907842,421392385.0,-8.87890625,0.921875,3.56640625,0.009765625,0.021484375,-0.021484375,17.375,-0.875,-33.8125,17.375,-0.875,-33.8125,-0.043468622862202246,-0.5682623712032813,0.02672866648240023,0.8212636207022447,14.816891822688728,68.60108233325566,-163.80266267570474,0.60906982421875,0.422119140625,0.382568359375,-0.5517578125,14.6953249208904,68.72296576565282,-74.25880331774965,3.047565625772527,,,,3,0,3,3
1788945333.1927373,421395968.0,-8.91796875,0.84765625,3.56640625,0.0078125,0.037109375,-0.02734375,17.1875,-2.1875,-33.3125,17.1875,-2.1875,-33.3125,-0.04339527460585489,-0.5682182671030865,0.026783404716710237,0.8212962317605194,14.813780078179407,68.59539656136377,-163.81632461811253,0.60894775390625,0.42218017578125,0.3826904296875,-0.5517578125,14.681960880745283,68.74233524828011,-74.27503110570207,3.069200589242111,,,,3,0,3,3
1788945333.1907842,421401550.0,-8.9140625,0.84765625,3.453125,0.01171875,0.046875,-0.029296875,17.1875,-2.1875,-33.3125,17.1875,-2.1875,-33.3125,-0.04323528342930018,-0.5682140492050801,0.02696228694760941,0.82130173483033,14.831156556763819,68.59420777920595,-163.82689194270066,0.60894775390625,0.42218017578125,0.3826904296875,-0.5517578125,14.681960880745283,68.74233524828011,-74.27503110570207,3.0883397835062505,,,,3,0,3,3
1788945333.1927373,421404104.0,-8.91796875,0.76953125,3.453125,0.01171875,0.046875,-0.029296875,16.125,-1.3125,-33.6875,16.125,-1.3125,-33.6875,-0.04315601184490081,-0.568229075642579,0.026850696415363508,0.8212991637266125,14.790723968083215,68.59980771299361,-163.86467164768104,0.60894775390625,0.42218017578125,0.3826904296875,-0.5517578125,14.681960880745283,68.74233524828011,-74.27503110570207,3.0756045497777063,,,,3,0,3,3
1788945333.2050776,421407810.0,-8.875,0.69140625,3.4921875,0.021484375,0.048828125,-0.0234375,16.125,-1.3125,-33.6875,16.125,-1.3125,-33.6875,-0.043035550410146554,-0.5682451345712835,0.02672224840526749,0.821298563177318,14.739007344376184,68.60659549223362,-163.9157446899279,0.6087646484375,0.42230224609375,0.38287353515625,-0.5517578125,14.669623207241646,68.77673289369906,-74.29844082390404,3.025930821204428,,,,3,0,3,3
1788945333.210024,421411316.0,-8.875,0.69140625,3.4921875,0.041015625,0.052734375,-0.01171875,16.125,-1.3125,-33.6875,16.125,-1.3125,-33.6875,-0.04291932071761435,-0.568265821069435,0.026641522011285036,0.8212929549304204,14.700546910623629,68.61299668108713,-163.95714713742967,0.6087646484375,0.42230224609375,0.38287353515625,-0.5517578125,14.669623207241646,68.77673289369906,-74.29844082390404,3.0162737386154497,,,,3,0,3,3
1788945333.2139592,421415169.0,-8.87890625,0.76953125,3.453125,0.041015625,0.052734375,-0.01171875,17.375,-3.8125,-34.5,17.375,-3.8125,-34.5,-0.04280444231558926,-0.5683205827534424,0.026868888900243318,0.8212536500656209,14.743797442404324,68.61801430727243,-163.94213108050064,0.6087646484375,0.42230224609375,0.38287353515625,-0.5517578125,14.669623207241646,68.77673289369906,-74.29844082390404,3.0403618065773044,,,,3,0,3,3
1788945333.2157953,421420352.0,-8.87890625,0.76953125,3.4140625,0.05859375,0.06640625,-0.015625,17.375,-3.8125,-34.5,17.375,-3.8125,-34.5,-0.042613663700094846,-0.5684404067305255,0.027208532004515045,0.8211694559883783,14.808883468738387,68.63096725125533,-163.9208134098963,0.60858154296875,0.42254638671875,0.3829345703125,-0.5517578125,14.701459540271758,68.80896350878032,-74.29380571902804,3.000122009835442,,,,3,0,3,3
1788945333.2177484,421423058.0,-8.91796875,0.80859375,3.375,0.0703125,0.072265625,-0.021484375,17.375,-3.8125,-34.5,17.375,-3.8125,-34.5,-0.04250480229031796,-0.5685217046969435,0.027396769834007743,0.8211125562755721,14.84591452377047,68.64020621824896,-163.90830100221572,0.60858154296875,0.42254638671875,0.3829345703125,-0.5517578125,14.701459540271758,68.80896350878032,-74.29380571902804,3.019937253204122,,,,3,0,3,3
1788945333.2244444,421426964.0,-8.9140625,0.84765625,3.4921875,0.08984375,0.080078125,-0.0234375,17.375,-3.8125,-34.5,17.375,-3.8125,-34.5,-0.04233631056546079,-0.5686184415673052,0.027692050110936017,0.8210443685197087,14.901394064916433,68.65051994259893,-163.89108529726886,0.60821533203125,0.42291259765625,0.38299560546875,-0.55181884765625,14.733546258552506,68.84854866355485,-74.30023668885369,3.0800134484040003,,,,3,0,3,3
1788945333.2286065,421431324.0,-8.9140625,0.84765625,3.453125,0.09375,0.091796875,-0.017578125,20.0625,-1.9375,-39.4375,20.0625,-1.9375,-39.4375,-0.04214930529212181,-0.5686753323947619,0.02775570085213954,0.8210124380661387,14.890923847277866,68.66029472329002,-163.92224366306112,0.60821533203125,0.42291259765625,0.38299560546875,-0.55181884765625,14.733546258552506,68.84854866355485,-74.30023668885369,3.085844028432765,,,,3,0,3,3
1788945333.2286065,421434900.0,-8.9140625,1.0,3.33984375,0.09375,0.091796875,-0.017578125,20.0625,-1.9375,-39.4375,20.0625,-1.9375,-39.4375,-0.04212720807158029,-0.5688480417573477,0.02800820887049677,0.820885341545816,14.968423614747163,68.67903093765298,-163.86742325452107,0.60821533203125,0.42291259765625,0.38299560546875,-0.55181884765625,14.733546258552506,68.84854866355485,-74.30023668885369,3.1111283867413806,,,,3,0,3,3
1788945333.2286065,421439383.0,-8.91796875,0.9609375,3.453125,0.103515625,0.095703125,-0.0234375,20.0625,-1.9375,-39.4375,20.0625,-1.9375,-39.4375,-0.042025042179073394,-0.5689123174110697,0.02823427297396918,0.8208382890420285,15.014648793837985,68.68513189178975,-163.84827390013945,0.6077880859375,0.4234619140625,0.383056640625,-0.55181884765625,14.811788309833029,68.90469893583678,-74.27389718812053,3.1212914066812982,,,,3,0,3,3
1788945333.2427828,421443166.0,-8.83984375,1.0,3.53125,0.091796875,0.08984375,-0.0234375,20.9375,-0.25,-39.8125,20.9375,-0.25,-39.8125,-0.0419465894296572,-0.5690013781406162,0.028205797317882624,0.8207815472505225,15.002729861786447,68.69907910834779,-163.86433962219976,0.6077880859375,0.4234619140625,0.383056640625,-0.55181884765625,14.811788309833029,68.90469893583678,-74.27389718812053,3.116336347883424,,,,3,0,2,3
1788945333.2427828,421446672.0,-8.83984375,1.0390625,3.4921875,0.087890625,0.10546875,-0.021484375,20.9375,-0.25,-39.8125,20.9375,-0.25,-39.8125,-0.041898133290429296,-0.5691121890304969,0.028174736704718185,0.820708259331727,14.997498044106887,68.71546020749307,-163.871036157153,0.60736083984375,0.4239501953125,0.3831787109375,-0.5518798828125,14.860882561837602,68.97031901851506,-74.28548774383624,2.970607105641265,,,,3,0,2,3
1788945333.2388477,421451255.0,-8.796875,1.0390625,3.4921875,0.078125,0.111328125,-0.029296875,20.9375,-0.25,-39.8125,20.9375,-0.25,-39.8125,-0.04183268123465909,-0.5692604809972803,0.028113620435323013,0.8206108431537344,14.98539864195513,68.73777411428979,-163.8835344139078,0.60736083984375,0.4239501953125,0.3831787109375,-0.5518798828125,14.860882561837602,68.97031901851506,-74.28548774383624,2.960285917948878,,,,3,0,2,3
1788945333.2427828,421454808.0,-8.796875,1.0390625,3.453125,0.078125,0.111328125,-0.029296875,20.625,-1.0625,-39.625,20.625,-1.0625,-39.625,-0.04180519145344859,-0.5693524488805218,0.028127373799708404,0.8205479667663705,14.993324473174491,68.75037605869659,-163.87903225215825,0.60736083984375,0.4239501953125,0.3831787109375,-0.5518798828125,14.860882561837602,68.97031901851506,-74.28548774383624,2.9599640025035345,,,,3,0,2,3
1788945333.2560742,421458991.0,-8.796875,1.0390625,3.4921875,0.060546875,0.1171875,-0.0390625,20.625,-1.0625,-39.625,20.625,-1.0625,-39.625,-0.04176140332076821,-0.5694607942543964,0.028111598814662173,0.8204755493077874,14.992536513234187,68.76604929182972,-163.88215864388596,0.60687255859375,0.4244384765625,0.38336181640625,-0.5518798828125,14.902804836584503,69.0321945201303,-74.28241396126174,3.0263678708997404,,,,3,0,2,3
1788945333.254121,421462897.0,-8.87890625,1.0390625,3.453125,0.0546875,0.12109375,-0.0390625,20.625,-1.0625,-39.625,20.625,-1.0625,-39.625,-0.04174942503571711,-0.5695846908353247,0.028063173967612612,0.8203918111134936,14.990498154102744,68.78387479682058,-163.8812250987911,0.60687255859375,0.4244384765625,0.38336181640625,-0.5518798828125,14.902804836584503,69.0321945201303,-74.28241396126174,3.018252384460778,,,,3,0,2,3
1788945333.2560742,421470480.0,-8.9140625,0.921875,3.4140625,0.03515625,0.12890625,-0.02734375,21.1875,-1.3125,-38.25,21.1875,-1.3125,-38.25,-0.04167455763162338,-0.5698970713053467,0.027778148074262345,0.8201883526686791,14.935914815093554,68.83278876862725,-163.91857414988215,0.6064453125,0.42486572265625,0.3836669921875,-0.55181884765625,14.931255713643251,69.10633708766804,-74.28469070090725,2.9572469057209436,,,,3,0,2,3
1788945333.2714574,421474263.0,-8.875,0.921875,3.4140625,0.03125,0.125,-0.03125,16.75,-2.8125,-34.0625,16.75,-2.8125,-34.0625,-0.0415876080458757,-0.5700490998449074,0.027960903009549114,0.8200808999884853,14.982746757774999,68.85128318015417,-163.89400911153368,0.6064453125,0.42486572265625,0.3836669921875,-0.55181884765625,14.931255713643251,69.10633708766804,-74.28469070090725,2.9741393091855044,,,,3,0,3,3
1788945333.2754698,421477869.0,-8.875,0.84765625,3.375,0.021484375,0.126953125,-0.0234375,16.75,-2.8125,-34.0625,16.75,-2.8125,-34.0625,-0.04149514930758957,-0.5702033296499888,0.02812768969007026,0.8199726510760624,15.024815728450648,68.8704821209368,-163.87334475542883,0.6060791015625,0.42529296875,0.384033203125,-0.55169677734375,14.968640504883675,69.19174726451769,-74.27811317919102,2.850265790134717,,,,3,0,3,3
1788945333.2814834,421481452.0,-8.875,0.80859375,3.33984375,0.0234375,0.12890625,-0.013671875,17.0625,-3.25,-34.125,17.0625,-3.25,-34.125,-0.04140472073999528,-0.57037787955566,0.028308625906075212,0.8198495870056544,15.07297980538967,68.89210433511839,-163.84758709992735,0.6060791015625,0.42529296875,0.384033203125,-0.55169677734375,14.968640504883675,69.19174726451769,-74.27811317919102,2.867035466205321,,,,3,0,3,3
1788945333.2814834,421486582.0,-8.83984375,0.76953125,3.30078125,0.0234375,0.12890625,-0.013671875,17.0625,-3.25,-34.125,17.0625,-3.25,-34.125,-0.04125117769271894,-0.5706397695799359,0.028559788502588734,0.8196663541913922,15.13705545017077,68.9252652819237,-163.81692622717785,0.6060791015625,0.42529296875,0.384033203125,-0.55169677734375,14.968640504883675,69.19174726451769,-74.27811317919102,2.8902664643627425,,,,3,0,3,3
1788945333.2873335,421490088.0,-8.83984375,0.76953125,3.30078125,0.01171875,0.12890625,-0.00390625,17.0625,-3.25,-34.125,17.0625,-3.25,-34.125,-0.04117042827000148,-0.5708143142583612,0.02872356527462335,0.8195431479011558,15.182703446821979,68.94704290268608,-163.7914687546698,0.60577392578125,0.4256591796875,0.3843994140625,-0.55145263671875,15.013153312274092,69.25725085936222,-74.2281580285859,3.0198187792414877,,,,3,0,3,3
1788945333.2873335,421494271.0,-8.83984375,0.73046875,3.26171875,0.01171875,0.12890625,0.005859375,17.5,-2.25,-33.25,17.5,-2.25,-33.25,-0.04097184219951483,-0.5710620831791328,0.02871942363645994,0.8193806197414463,15.172047709864135,68.98411454738846,-163.8182110018065,0.60577392578125,0.4256591796875,0.3843994140625,-0.55145263671875,15.013153312274092,69.25725085936222,-74.2281580285859,3.013183087330874,,,,3,0,3,3
1788945333.2873335,421497777.0,-8.87890625,0.76953125,3.30078125,0.013671875,0.130859375,0.01171875,17.5,-2.25,-33.25,17.5,-2.25,-33.25,-0.04081341541021973,-0.5712297904972014,0.02878010740903944,0.8192694898436048,15.176923334445275,69.00841490334837,-163.8314320653463,0.60552978515625,0.42608642578125,0.384765625,-0.55120849609375,15.082113357475047,69.34136959524079,-74.17887672663431,2.843149668544105,,,,3,0,3,3
1788945333.2873335,421501360.0,-8.87890625,0.76953125,3.30078125,0.01171875,0.126953125,0.01953125,17.75,-0.8125,-33.375,17.75,-0.8125,-33.375,-0.040816284820895686,-0.5714194805915239,0.028630936427558838,0.8191422816417265,15.15837613017161,69.03681447703536,-163.83749563302038,0.60552978515625,0.42608642578125,0.384765625,-0.55120849609375,15.082113357475047,69.34136959524079,-74.17887672663431,2.8202529777070615,,,,3,0,3,3
1788945333.3031669,421505713.0,-8.9140625,0.80859375,3.26171875,0.01171875,0.126953125,0.01953125,17.75,-0.8125,-33.375,17.75,-0.8125,-33.375,-0.04083083735108624,-0.5716752202879054,0.028450127983548294,0.8189693983585123,15.140455612781363,69.07452004867768,-163.83937914304047,0.60552978515625,0.42608642578125,0.384765625,-0.55120849609375,15.082113357475047,69.34136959524079,-74.17887672663431,2.7921482528804664,,,,3,0,3,3
1788945333.3008835,421509219.0,-8.953125,0.80859375,3.22265625,0.009765625,0.12890625,0.021484375,17.75,-0.8125,-33.375,17.75,-0.8125,-33.375,-0.04084648696830333,-0.5719025824844911,0.02831087915410049,0.8188146889079605,15.130538113850864,69.10758148966966,-163.83658772070393,0.60528564453125,0.426513671875,0.38507080078125,-0.55084228515625,15.172941958039768,69.39668655948871,-74.06825419298873,2.999605299097248,,,,3,0,3,3
1788945333.3073196,421513202.0,-8.95703125,0.84765625,3.22265625,0.0078125,0.12890625,0.03125,18.0,-0.4375,-33.6875,18.0,-0.4375,-33.6875,-0.04090241023915447,-0.5721547253358511,0.028157199571232878,0.8186410295268558,15.126568450347557,69.14353622495753,-163.82334732684035,0.60528564453125,0.426513671875,0.38507080078125,-0.55084228515625,15.172941958039768,69.39668655948871,-74.06825419298873,2.9766265312337676,,,,3,0,3,3
1788945333.3152335,421517885.0,-9.03125,0.921875,3.18359375,0.005859375,0.12109375,0.0390625,18.0,-0.4375,-33.6875,18.0,-0.4375,-33.6875,-0.04101004207160113,-0.5724680118959554,0.028009379737729004,0.8184216678778033,15.139633127423464,69.18668353017956,-163.78930940204867,0.6051025390625,0.42694091796875,0.3853759765625,-0.55047607421875,15.27259892416428,69.45967578331607,-73.96006909159442,3.010574430868903,,,,3,0,3,3
1788945333.318995,421521368.0,-9.03125,0.921875,3.1484375,0.00390625,0.119140625,0.041015625,17.1875,-2.1875,-33.3125,17.1875,-2.1875,-33.3125,-0.0410657667127809,-0.5727153752713436,0.028149190224863202,0.818240994341997,15.211382307735956,69.21626732585648,-163.72453823818972,0.6051025390625,0.42694091796875,0.3853759765625,-0.55047607421875,15.27259892416428,69.45967578331607,-73.96006909159442,3.0206794125601615,,,,3,0,3,3
1788945333.318995,421525721.0,-9.07421875,0.921875,3.1484375,0.00390625,0.119140625,0.041015625,17.1875,-2.1875,-33.3125,17.1875,-2.1875,-33.3125,-0.04113229795303505,-0.5730281934576053,0.028315487275514795,0.8180128707717051,15.298972154221229,69.25393067766827,-163.645231007247,0.6051025390625,0.42694091796875,0.3853759765625,-0.55047607421875,15.27259892416428,69.45967578331607,-73.96006909159442,3.0329500648225527,,,,3,0,3,3
1788945333.318995,421529227.0,-9.07421875,0.9609375,3.0703125,0.0078125,0.111328125,0.046875,17.1875,-2.1875,-33.3125,17.1875,-2.1875,-33.3125,-0.04120084848325781,-0.5732735642311779,0.028451051057064688,0.8178327752858097,15.372150506715636,69.28304755650802,-163.57762190410975,0.60498046875,0.4273681640625,0.3856201171875,-0.55010986328125,15.387692988483927,69.51832735729371,-73.84196209022198,3.032838404628823,,,,3,0,3,3
1788945333.3349214,421536716.0,-9.0703125,0.9609375,3.109375,-0.001953125,0.1015625,0.041015625,20.875,-0.8125,-37.875,20.875,-0.8125,-37.875,-0.041399691282526754,-0.5737624316371068,0.02827243640956143,0.817486028591959,15.41279326019619,69.34877556337736,-163.50599946087203,0.60491943359375,0.427734375,0.3858642578125,-0.54974365234375,15.495478752131381,69.57373332543848,-73.72857720100802,2.9473195100190344,,,,3,0,3,3
1788945333.3329682,421541446.0,-9.07421875,1.0,3.0703125,-0.001953125,0.1015625,0.041015625,20.875,-0.8125,-37.875,20.875,-0.8125,-37.875,-0.04153819291837203,-0.5740814705361451,0.028189220886670897,0.8172578611074571,15.449802652046625,69.39084923593661,-163.45080157294223,0.60491943359375,0.427734375,0.3858642578125,-0.54974365234375,15.495478752131381,69.57373332543848,-73.72857720100802,2.9318252848856186,,,,3,0,3,3
1788945333.3399262,421544652.0,-8.9921875,1.0,3.0703125,0.001953125,0.08984375,0.04296875,20.875,-0.3125,-40.1875,20.875,-0.3125,-40.1875,-0.04163889666194136,-0.5742682254670853,0.028111418888729593,0.8171241984127771,15.467492083248816,69.41569328664309,-163.4184541795665,0.60491943359375,0.427734375,0.3858642578125,-0.54974365234375,15.495478752131381,69.57373332543848,-73.72857720100802,2.9198492051403018,,,,3,0,2,3
1788945333.3359911,421550135.0,-8.953125,1.0,3.0703125,0.001953125,0.08203125,0.0390625,20.875,-0.3125,-40.1875,20.875,-0.3125,-40.1875,-0.041807317972872376,-0.5745654796308248,0.027967541186802135,0.8169115462646368,15.492006700527448,69.45549058734579,-163.3682911870323,0.6051025390625,0.42779541015625,0.3857421875,-0.54962158203125,15.564357930368642,69.56655088348221,-73.66173551187728,2.7773979603070234,,,,3,0,2,3
1788945333.3485901,421556494.0,-8.95703125,1.0390625,3.109375,0.00390625,0.07421875,0.029296875,20.875,-0.3125,-40.1875,20.875,-0.3125,-40.1875,-0.042010703496772904,-0.5748762659571324,0.02778615181588371,0.8166886245063998,15.514629252058603,69.49721774438073,-163.31405865498468,0.6051025390625,0.42779541015625,0.3857421875,-0.54962158203125,15.564357930368642,69.56655088348221,-73.66173551187728,2.7519433072217354,,,,3,0,2,3
1788945333.3576043,421556647.0,-8.953125,1.0390625,3.0703125,0.001953125,0.07421875,0.03125,20.875,-0.3125,-40.1875,20.875,-0.3125,-40.1875,-0.0420156266566343,-0.5748841116347776,0.027782203211238317,0.8166829828588766,15.515329622331834,69.49826251229314,-163.31262965177558,0.60528564453125,0.42779541015625,0.3856201171875,-0.54949951171875,15.616877560131202,69.54834939230729,-73.59717915011295,2.755056699395185,,,,3,0,2,3
1788945333.3576455,421560877.0,-8.953125,1.0390625,3.0703125,0.001953125,0.07421875,0.03125,20.875,-0.3125,-40.1875,20.875,-0.3125,-40.1875,-0.042151777822643226,-0.5751009373296283,0.027673009430458764,0.8165270014261837,15.534731155910075,69.52713728760645,-163.27307893861172,0.60528564453125,0.42779541015625,0.3856201171875,-0.54949951171875,15.616877560131202,69.54834939230729,-73.59717915011295,2.7398682249834905,,,,3,0,2,3
1788945333.3635867,421564660.0,-8.99609375,1.0,3.109375,0.01171875,0.068359375,0.0234375,20.4375,-0.4375,-38.5625,20.4375,-0.4375,-38.5625,-0.04223763205266079,-0.5752785724730624,0.027564497549260023,0.8164010931930433,15.541033266208748,69.55166397995947,-163.25081869557445,0.60528564453125,0.42779541015625,0.3856201171875,-0.54949951171875,15.616877560131202,69.54834939230729,-73.59717915011295,2.7253484397846557,,,,3,0,2,3
1788945333.365694,421571719.0,-8.99609375,1.0,3.109375,0.005859375,0.06640625,0.017578125,20.4375,-0.4375,-38.5625,20.4375,-0.4375,-38.5625,-0.04239487611592671,-0.5756022027081072,0.027332292470822448,0.8161726070537898,15.543692277985679,69.59704363430932,-163.21618069424775,0.60516357421875,0.42803955078125,0.3857421875,-0.54931640625,15.675008501356357,69.57544827233092,-73.53338533640122,2.79742926427287,,,,3,0,2,3
1788945333.3696291,421571796.0,-9.03515625,1.0,3.109375,0.005859375,0.05859375,0.0234375,20.4375,-0.4375,-38.5625,20.4375,-0.4375,-38.5625,-0.04239673887844782,-0.5756055290560619,0.02732995177714075,0.8161702427731747,15.543777064678524,69.59750457716815,-163.2157507146083,0.60516357421875,0.42803955078125,0.3857421875,-0.54931640625,15.675008501356357,69.57544827233092,-73.53338533640122,2.797137907393221,,,,3,0,2,3
1788945333.3696291,421576055.0,-9.03515625,0.9609375,3.109375,0.001953125,0.046875,0.0234375,20.4375,-0.4375,-38.5625,20.4375,-0.4375,-38.5625,-0.04248531760521131,-0.575764253039988,0.027183233090848444,0.8160585729884942,15.538563203866667,69.62021814115195,-163.2016363081103,0.6051025390625,0.42828369140625,0.3858642578125,-0.54913330078125,15.741599811119203,69.61028713529595,-73.47255131319969,2.704047395344525,,,,3,0,2,3
1788945333.367676,421581138.0,-8.953125,0.921875,3.109375,0.001953125,0.037109375,0.025390625,20.4375,-0.4375,-38.5625,20.4375,-0.4375,-38.5625,-0.04258217247613332,-0.5759145999198547,0.026992064246730674,0.8159537736012176,15.522250350425553,69.64255444162191,-163.19428051099302,0.6051025390625,0.42828369140625,0.3858642578125,-0.54913330078125,15.741599811119203,69.61028713529595,-73.47255131319969,2.6806485898983095,,,,3,0,2,3
1788945333.3696291,421583991.0,-8.9140625,0.921875,3.18359375,0.001953125,0.037109375,0.025390625,16.5,-2.6875,-33.4375,16.5,-2.6875,-33.4375,-0.04260085074858723,-0.5759531704973572,0.0271548031242931,0.8159201735322025,15.572738656751747,69.64409701648489,-163.15565568105282,0.6051025390625,0.42828369140625,0.3858642578125,-0.54913330078125,15.741599811119203,69.61028713529595,-73.47255131319969,2.6993568326654866,,,,3,0,3,3
1788945333.3819604,421591450.0,-8.91796875,0.9609375,3.1484375,-0.001953125,0.037109375,0.025390625,16.5,-2.6875,-33.4375,16.5,-2.6875,-33.4375,-0.04268124037348707,-0.576082085191569,0.027564709837390833,0.8158112095412117,15.709523611994262,69.65158741173485,-163.04601410913477,0.6051025390625,0.42840576171875,0.38592529296875,-0.5489501953125,15.790306655286416,69.6186830787473,-73.40674235299294,2.85775560038747,,,,3,0,3,3
1788945333.3858955,421592304.0,-8.91796875,0.8828125,3.18359375,-0.0078125,0.033203125,0.025390625,16.5,-2.6875,-33.4375,16.5,-2.6875,-33.4375,-0.042684620609340126,-0.576091641557865,0.027609498238042887,0.8158027698516623,15.722991358416694,69.65189362756621,-163.0359560018374,0.6051025390625,0.42840576171875,0.38592529296875,-0.5489501953125,15.790306655286416,69.6186830787473,-73.40674235299294,2.862695231122186,,,,3,0,3,3
1788945333.3768678,421595557.0,-8.9140625,0.921875,3.109375,-0.0078125,0.033203125,0.025390625,16.5,-2.6875,-33.4375,16.5,-2.6875,-33.4375,-0.042711702432314064,-0.5761563873884212,0.02777422329159902,0.8157500354075415,15.778471456683079,69.65672309470607,-162.99181705741287,0.6051025390625,0.42840576171875,0.38592529296875,-0.5489501953125,15.790306655286416,69.6186830787473,-73.40674235299294,2.8806869228389367,,,,3,0,3,3
1788945333.3858955,421599263.0,-8.91796875,0.9609375,3.1484375,-0.005859375,0.033203125,0.025390625,16.5,-2.6875,-33.4375,16.5,-2.6875,-33.4375,-0.042753085013066044,-0.576212631973629,0.027972566819969725,0.8157013620078067,15.84449728004628,69.6594281980815,-162.93871851253553,0.60516357421875,0.42852783203125,0.385986328125,-0.548828125,15.839911346107861,69.643437970048,-73.36863678533629,2.682793290708935,,,,3,0,3,3
1788945333.402249,421603322.0,-8.95703125,1.0,3.1484375,0.001953125,0.033203125,0.021484375,16.6875,-1.875,-34.3125,16.6875,-1.875,-34.3125,-0.042837715156029174,-0.5763039827814841,0.02817874839873802,0.8156252863472848,15.924403776417424,69.6658486097677,-162.86883105699093,0.60516357421875,0.42852783203125,0.385986328125,-0.548828125,15.839911346107861,69.643437970048,-73.36863678533629,2.7073434274840427,,,,3,0,3,3
1788945333.402249,421608205.0,-8.95703125,1.0,3.1484375,0.01171875,0.03125,0.025390625,16.6875,-1.875,-34.3125,16.6875,-1.875,-34.3125,-0.04293369121344297,-0.576410412952773,0.028452003725285304,0.8155355402938727,16.025791180928078,69.67265612759033,-162.78205098291002,0.60516357421875,0.42864990234375,0.385986328125,-0.5487060546875,15.887666073610466,69.64827113527329,-73.3149403631521,2.799537318033973,,,,3,0,3,3
1788945333.409141,421611211.0,-8.99609375,1.0,3.1484375,0.00390625,0.029296875,0.02734375,16.6875,-1.875,-34.3125,16.6875,-1.875,-34.3125,-0.042998280653039136,-0.5764824980227995,0.028605677986599697,0.8154758074407864,16.086152707879886,69.67790421647395,-162.72903306334084,0.60516357421875,0.42864990234375,0.385986328125,-0.5487060546875,15.887666073610466,69.64827113527329,-73.3149403631521,2.8174108518713576,,,,3,0,3,3
1788945333.417579,421619271.0,-9.03515625,1.0,3.109375,0.001953125,0.025390625,0.029296875,18.0625,-2.8125,-33.9375,18.0625,-2.8125,-33.9375,-0.04310121753089764,-0.5766436556893373,0.029042109794006687,0.8153409932410512,16.23812441216909,69.68844059480848,-162.6045350259606,0.605224609375,0.42877197265625,0.385986328125,-0.54852294921875,15.951218712763177,69.65223495463269,-73.23974565378431,2.908602026820539,,,,3,0,3,3
1788945333.4189985,421623130.0,-9.03515625,0.9609375,3.1484375,0.00390625,0.01953125,0.0234375,17.125,-2.75,-33.75,17.125,-2.75,-33.75,-0.043119157784944816,-0.5766975078263311,0.02925609448591775,0.8152943049195468,16.303896629991467,69.69082910511119,-162.55490591211117,0.605224609375,0.42877197265625,0.385986328125,-0.54852294921875,15.951218712763177,69.65223495463269,-73.23974565378431,2.933065646738763,,,,3,0,3,3
1788945333.4170454,421630713.0,-9.03125,1.0,3.0703125,0.005859375,0.01171875,0.029296875,17.125,-2.75,-33.75,17.125,-2.75,-33.75,-0.043192758208659775,-0.5768304366630254,0.029661357881437058,0.8151817201250902,16.439281889850378,69.69868031398366,-162.44683744844093,0.60528564453125,0.4288330078125,0.385986328125,-0.54840087890625,15.990891243534973,69.6537806640089,-73.1914089754831,2.990947077582419,,,,3,0,3,3
1788945333.4189985,421635096.0,-9.03125,1.0,3.0703125,0.0078125,0.0078125,0.02734375,17.125,-2.75,-33.75,17.125,-2.75,-33.75,-0.04322707624722018,-0.5769012495415432,0.029896144265023742,0.815121211056741,16.515534874505047,69.70252855997894,-162.38709376509067,0.60528564453125,0.4288330078125,0.385986328125,-0.54840087890625,15.990891243534973,69.6537806640089,-73.1914089754831,3.017715566640297,,,,3,0,3,3
1788945333.4370773,421638802.0,-9.03515625,1.0390625,3.03125,0.009765625,-0.001953125,0.021484375,17.125,-2.75,-33.75,17.125,-2.75,-33.75,-0.043254134834363696,-0.5769544073975559,0.030084407269954986,0.8150752235490176,16.57619741270318,69.70512030110775,-162.33970598742775,0.6053466796875,0.42889404296875,0.3858642578125,-0.54833984375,16.035738562064147,69.6395997126207,-73.14299560306436,3.0984816426021156,,,,3,0,3,3
1788945333.4437077,421642185.0,-9.03515625,1.0390625,3.03125,0.015625,-0.00390625,0.017578125,20.5625,-0.25,-39.9375,20.5625,-0.25,-39.9375,-0.04330519039846917,-0.5770155405448039,0.029989738420756584,0.8150327245232517,16.56763576764291,69.71432961750499,-162.3362873893705,0.6053466796875,0.42889404296875,0.3858642578125,-0.54833984375,16.035738562064147,69.6395997126207,-73.14299560306436,3.0878136437604207,,,,3,0,2,3
1788945333.4503922,421646668.0,-9.03125,1.0390625,3.0703125,0.013671875,-0.009765625,0.005859375,20.5625,-0.25,-39.9375,20.5625,-0.25,-39.9375,-0.04335869291602174,-0.5770735872663941,0.02983388434197225,0.8149945018054902,16.543033614567467,69.72438170769767,-162.34367304119448,0.60540771484375,0.428955078125,0.38580322265625,-0.54833984375,16.06679664645331,69.64621033952609,-73.13159743002242,2.8856689905738353,,,,3,0,2,3
1788945333.4484103,421651250.0,-8.99609375,1.0390625,3.1484375,0.013671875,-0.015625,0.005859375,20.5625,-0.25,-39.9375,20.5625,-0.25,-39.9375,-0.04342372420035147,-0.5770826429506114,0.029656071193480463,0.8149911170209625,16.50906751896566,69.72808832504198,-162.35765532843678,0.60540771484375,0.428955078125,0.38580322265625,-0.54833984375,16.06679664645331,69.64621033952609,-73.13159743002242,2.864833557281726,,,,3,0,2,3
1788945333.4523454,421654504.0,-8.9921875,1.0390625,3.0703125,0.013671875,-0.015625,0.005859375,20.6875,-2.0,-39.75,20.6875,-2.0,-39.75,-0.043469961613075384,-0.5771464197915437,0.029736334857108342,0.8149405640587702,16.54605075651654,69.73402280764938,-162.32348350003582,0.60540771484375,0.428955078125,0.38580322265625,-0.54833984375,16.06679664645331,69.64621033952609,-73.13159743002242,2.874407477633155,,,,3,0,2,3
1788945333.4484103,421661563.0,-8.9921875,1.0390625,3.0703125,0.01171875,-0.015625,-0.00390625,20.6875,-2.0,-39.75,20.6875,-2.0,-39.75,-0.04354659302118564,-0.5772864049947358,0.02988125539759238,0.8148320142338327,16.614519815743883,69.74819548719402,-162.26066060898606,0.60540771484375,0.428955078125,0.38568115234375,-0.54833984375,16.079390261221825,69.62187639166993,-73.10692991863024,3.088130492004006,,,,3,0,2,3
1788945333.4523454,421662616.0,-9.03515625,1.0390625,3.109375,0.017578125,-0.021484375,0.00390625,20.6875,-2.0,-39.75,20.6875,-2.0,-39.75,-0.04356279090466201,-0.5773038198018067,0.029908697337032195,0.8148178033857886,16.626744789851156,69.74962126651756,-162.24936368131176,0.60540771484375,0.428955078125,0.38568115234375,-0.54833984375,16.079390261221825,69.62187639166993,-73.10692991863024,3.0912389992838745,,,,3,0,2,3
1788945333.4656994,421666399.0,-8.99609375,1.0390625,3.1484375,0.009765625,-0.029296875,0.00390625,20.6875,-2.0,-39.75,20.6875,-2.0,-39.75,-0.04367916835078472,-0.5773151831955977,0.030034452923276157,0.8147988961342649,16.682488730825515,69.74610228719169,-162.1943855356683,0.60540771484375,0.428955078125,0.3856201171875,-0.5484619140625,16.070797045310734,69.62694867618167,-73.14383520031244,2.912249981644301,,,,3,0,2,3
1788945333.4669058,421670052.0,-8.99609375,1.0,3.1484375,0.009765625,-0.029296875,0.00390625,20.6875,-2.0,-39.75,20.6875,-2.0,-39.75,-0.043777848856760275,-0.5773594862441379,0.030088317501557733,0.814760220398189,16.71988906514275,69.74889836316024,-162.15330109840104,0.60540771484375,0.428955078125,0.3856201171875,-0.5484619140625,16.070797045310734,69.62694867618167,-73.14383520031244,2.919316865244169,,,,3,0,2,3
1788945333.4734159,421674035.0,-8.99609375,0.9609375,3.1484375,0.00390625,-0.037109375,0.0,16.75,-1.8125,-33.6875,16.75,-1.8125,-33.6875,-0.043769586317622414,-0.5773932085893632,0.03020502173661757,0.8147324485070881,16.75310936227422,69.75107712773392,-162.13037115832392,0.60540771484375,0.428955078125,0.3856201171875,-0.5484619140625,16.070797045310734,69.62694867618167,-73.14383520031244,2.9330090554245154,,,,3,0,3,3
1788945333.4785624,421678518.0,-8.953125,0.921875,3.1484375,0.0078125,-0.03515625,-0.001953125,16.75,-1.8125,-33.6875,16.75,-1.8125,-33.6875,-0.04358945389263249,-0.5774140734385281,0.030164493901855983,0.8147288202906001,16.711971721663712,69.75839948012916,-162.18301282518425,0.60552978515625,0.4288330078125,0.385498046875,-0.54852294921875,16.059610013660784,69.60470188595856,-73.15466614287666,2.8903773663626864,,,,3,0,3,3
1788945333.48049,421682024.0,-8.99609375,0.9609375,3.1484375,0.00390625,-0.0390625,-0.001953125,16.75,-1.8125,-33.6875,16.75,-1.8125,-33.6875,-0.04358260911033529,-0.577441104650488,0.030265440775409616,0.8147062844595162,16.74052121078051,69.75999495250892,-162.16333871936843,0.60552978515625,0.4288330078125,0.385498046875,-0.54852294921875,16.059610013660784,69.60470188595856,-73.15466614287666,2.902430044982634,,,,3,0,3,3
1788945333.4810896,421690083.0,-8.953125,0.9609375,3.22265625,-0.00390625,-0.0390625,0.0,18.5,-0.75,-32.625,18.5,-0.75,-32.625,-0.04363663163487081,-0.5772767691140491,0.029875616373609706,0.8148342308513459,16.628351780982552,69.7452108188489,-162.2389477127852,0.6055908203125,0.4287109375,0.38531494140625,-0.548583984375,16.04648833311958,69.56260542130647,-73.15000532040965,3.0827791053087332,,,,3,0,3,3
1788945333.4855168,421693166.0,-8.99609375,0.9609375,3.18359375,0.013671875,-0.03515625,0.0,18.125,-0.3125,-33.0,18.125,-0.3125,-33.0,-0.04364348634913082,-0.5772437688575285,0.029743282835317044,0.8148620831408391,16.590860361663015,69.74347595051577,-162.26497875688884,0.6055908203125,0.4287109375,0.38531494140625,-0.548583984375,16.04648833311958,69.56260542130647,-73.15000532040965,3.0681392637950156,,,,3,0,3,3
1788945333.4855168,421697649.0,-8.953125,1.0,3.22265625,0.01171875,-0.037109375,0.0,18.125,-0.3125,-33.0,18.125,-0.3125,-33.0,-0.04367487888594531,-0.5771670900079121,0.02955550997958231,0.8149215465282186,16.538169085335376,69.73656130643622,-162.29961683180184,0.60565185546875,0.42864990234375,0.38519287109375,-0.5487060546875,16.036099254549065,69.5522470097782,-73.17995064437405,2.907458751420199,,,,3,0,3,3
1788945333.499525,421702032.0,-8.95703125,0.921875,3.22265625,0.0078125,-0.037109375,-0.001953125,18.125,-0.3125,-33.0,18.125,-0.3125,-33.0,-0.0436777950693272,-0.5770947923495018,0.029356446779368987,0.8149797849600058,16.47784218207289,69.73103675488605,-162.34330737337643,0.60565185546875,0.42864990234375,0.38519287109375,-0.5487060546875,16.036099254549065,69.5522470097782,-73.17995064437405,2.884366877367304,,,,3,0,3,3
1788945333.5065563,421710591.0,-8.9140625,1.0,3.22265625,0.009765625,-0.041015625,0.0,18.125,-0.8125,-33.0,18.125,-0.8125,-33.0,-0.043776148460893366,-0.5768886130287991,0.02902324334079345,0.8151323992638371,16.384203723691222,69.70845929828018,-162.40137846812064,0.60577392578125,0.42852783203125,0.38507080078125,-0.54876708984375,16.025001390149896,69.53003522263245,-73.1907419593818,2.80844682263337,,,,3,0,3,3
1788945333.5085528,421713197.0,-8.953125,1.0390625,3.22265625,0.015625,-0.037109375,-0.005859375,18.125,-0.8125,-33.0,18.125,-0.8125,-33.0,-0.04381603928358156,-0.5768363486273742,0.028928999670530933,0.815170592319056,16.360647377023078,69.7026446788894,-162.41388169042213,0.60577392578125,0.42852783203125,0.38507080078125,-0.54876708984375,16.025001390149896,69.53003522263245,-73.1907419593818,2.7977126707680813,,,,3,0,3,3
1788945333.517063,421717380.0,-8.953125,1.0390625,3.22265625,0.015625,-0.03125,-0.00390625,18.125,-0.8125,-33.0,18.125,-0.8125,-33.0,-0.043885391285902346,-0.5767629907680786,0.02878005337394301,0.8152240388014435,16.32564917213024,69.69457179850752,-162.43089363696976,0.6058349609375,0.428466796875,0.3848876953125,-0.54888916015625,16.020962821242197,69.50756236054492,-73.20836811812961,2.7359815236204126,,,,3,0,3,3
1788945333.5151243,421721363.0,-8.91796875,1.0,3.30078125,-0.001953125,-0.03125,-0.001953125,18.125,-0.8125,-33.0,18.125,-0.8125,-33.0,-0.04393712232729391,-0.5766465345107903,0.028636006285614902,0.8153087039044183,16.283828911319997,69.68094638767175,-162.45657015099314,0.6058349609375,0.428466796875,0.3848876953125,-0.54888916015625,16.020962821242197,69.50756236054492,-73.20836811812961,2.719331455072069,,,,3,0,3,3
1788945333.5190594,421725516.0,-8.953125,1.0,3.26171875,-0.001953125,-0.03125,-0.001953125,17.8125,-1.75,-33.1875,17.8125,-1.75,-33.1875,-0.044005987184899904,-0.5764885849339032,0.028728236076099048,0.815413436843387,16.30259278806406,69.65639838573101,-162.43968145992747,0.6058349609375,0.428466796875,0.3848876953125,-0.54888916015625,16.020962821242197,69.50756236054492,-73.20836811812961,2.7311816844426735,,,,3,0,3,3
1788945333.5151243,421730899.0,-8.953125,1.0,3.22265625,0.005859375,-0.0234375,-0.01171875,17.8125,-1.75,-33.1875,17.8125,-1.75,-33.1875,-0.04410227451550168,-0.5763426905083758,0.028905733158169387,0.8155050895431092,16.350072716113633,69.63112013154017,-162.3988377612661,0.60589599609375,0.42840576171875,0.38482666015625,-0.5489501953125,16.011744332686604,69.50074098872766,-73.22598712461716,2.6521297301380646,,,,3,0,3,3
1788945333.5277922,421736182.0,-8.9921875,0.9609375,3.26171875,0.001953125,-0.0234375,-0.005859375,17.8125,-1.75,-33.1875,17.8125,-1.75,-33.1875,-0.044133520519598284,-0.5761388542396343,0.02894455083429955,0.8156460420911685,16.342655474944998,69.6022870360227,-162.40682181374044,0.60589599609375,0.42840576171875,0.38482666015625,-0.5489501953125,16.011744332686604,69.50074098872766,-73.22598712461716,2.6578643919057994,,,,3,0,3,3
1788945333.5356777,421736635.0,-8.99609375,0.9609375,3.30078125,0.009765625,-0.013671875,-0.01171875,17.8125,-1.75,-33.1875,17.8125,-1.75,-33.1875,-0.04413274931101278,-0.576123118878736,0.02894660018285062,0.8156571256781512,16.34125852840985,69.6001444467904,-162.4084467825303,0.60589599609375,0.42828369140625,0.384765625,-0.54901123046875,15.977993707136337,69.47528152750061,-73.24264419764367,2.8641166693422835,,,,3,0,3,3
1788945333.5336812,421740364.0,-8.99609375,1.0,3.30078125,0.009765625,-0.013671875,-0.01171875,17.8125,-1.75,-33.1875,17.8125,-1.75,-33.1875,-0.04415744160973222,-0.5760012673053506,0.02900890096038852,0.8157396300770139,16.348177485400452,69.58196183664089,-162.40458867600572,0.60589599609375,0.42828369140625,0.384765625,-0.54901123046875,15.977993707136337,69.47528152750061,-73.24264419764367,2.8719075004505052,,,,3,0,3,3
1788945333.541751,421744647.0,-8.95703125,1.0,3.30078125,0.005859375,-0.013671875,-0.0078125,21.0,-2.5,-39.75,21.0,-2.5,-39.75,-0.044166807986406736,-0.5758833544460109,0.029163503942179318,0.8158168576231534,16.376944506248826,69.56265268406267,-162.3877424668189,0.60589599609375,0.42828369140625,0.384765625,-0.54901123046875,15.977993707136337,69.47528152750061,-73.24264419764367,2.8902107006128506,,,,3,0,2,3
1788945333.5463927,421751107.0,-8.99609375,0.9609375,3.30078125,0.00390625,-0.0078125,-0.01953125,21.0,-2.5,-39.75,21.0,-2.5,-39.75,-0.044109177729301625,-0.5757085802078686,0.029350647103609098,0.8159366094432118,16.395611803196218,69.53634447608103,-162.38917928573886,0.60589599609375,0.42828369140625,0.38470458984375,-0.549072265625,15.976919721578884,69.47173875075842,-73.2548658358554,2.861561609890816,,,,3,0,2,3
1788945333.5453377,421756689.0,-8.953125,0.9609375,3.33984375,0.00390625,0.00390625,-0.01953125,21.0,-2.5,-39.75,21.0,-2.5,-39.75,-0.04406453319338996,-0.575565076890414,0.029455989366241147,0.8160364598895299,16.398778352300507,69.51572127948688,-162.3983239219147,0.60589599609375,0.42828369140625,0.38470458984375,-0.549072265625,15.976919721578884,69.47173875075842,-73.2548658358554,2.874230202540118,,,,3,0,2,3
1788945333.5483687,421761072.0,-8.953125,0.9609375,3.33984375,0.005859375,0.0078125,-0.015625,21.0,-2.5,-39.75,21.0,-2.5,-39.75,-0.04403207094766271,-0.5754531366688094,0.029551075158035834,0.8161137164532236,16.405055002774596,69.49931560070505,-162.40251936197785,0.60589599609375,0.42828369140625,0.3846435546875,-0.54913330078125,15.975849332463683,69.46819655894487,-73.26708451757423,2.834699958472673,,,,3,0,2,3
1788945333.5644414,421764655.0,-8.9140625,1.0,3.33984375,0.01171875,0.001953125,-0.013671875,19.9375,1.125,-37.5625,19.9375,1.125,-37.5625,-0.04403377833579463,-0.5754446686080449,0.02938544524130153,0.8161255757198288,16.361120260951633,69.50165727324323,-162.43267880291376,0.60589599609375,0.42828369140625,0.3846435546875,-0.54913330078125,15.975849332463683,69.46819655894487,-73.26708451757423,2.8151819056049203,,,,3,0,2,3
1788945333.5649066,421771814.0,-8.91796875,0.9609375,3.375,-0.001953125,0.015625,-0.013671875,19.9375,1.125,-37.5625,19.9375,1.125,-37.5625,-0.044053480296409375,-0.5754542917745362,0.029014872178685324,0.8161309858990132,16.268891080056648,69.51040054455972,-162.4927870608979,0.6058349609375,0.42828369140625,0.38470458984375,-0.54913330078125,15.961331018839518,69.47260795521774,-73.27616659179694,2.8404343549137274,,,,3,0,2,3
1788945333.5620708,421776421.0,-8.9140625,1.0,3.33984375,-0.001953125,0.01953125,-0.0234375,19.9375,1.125,-37.5625,19.9375,1.125,-37.5625,-0.04405872405792729,-0.5754749920398786,0.028760900781435336,0.8161250963898424,16.205750230084142,69.51843647703885,-162.53459850619492,0.6058349609375,0.42828369140625,0.38470458984375,-0.54913330078125,15.961331018839518,69.47260795521774,-73.27616659179694,2.810939833619007,,,,3,0,2,3
1788945333.5668886,421780704.0,-8.91796875,1.0390625,3.4140625,-0.00390625,0.02734375,-0.021484375,19.9375,1.125,-37.5625,19.9375,1.125,-37.5625,-0.044077712384308534,-0.5754897402917591,0.02853636689743625,0.8161215533572096,16.152091291482392,69.52477382371428,-162.56821732972628,0.605712890625,0.42828369140625,0.38482666015625,-0.5491943359375,15.92487981004469,69.48997386013339,-73.31883110460727,2.766218714498877,,,,3,0,2,3
1788945333.5872788,421784386.0,-8.95703125,1.0390625,3.375,-0.0078125,0.03515625,-0.017578125,19.9375,1.125,-37.5625,19.9375,1.125,-37.5625,-0.0441056552356512,-0.5755236161329651,0.02833509293639015,0.8161031680846212,16.10826373620987,69.53301283637265,-162.59318697952324,0.605712890625,0.42828369140625,0.38482666015625,-0.5491943359375,15.92487981004469,69.48997386013339,-73.31883110460727,2.742720919966405,,,,3,0,2,3
1788945333.5872788,421788093.0,-8.9921875,1.0390625,3.33984375,-0.013671875,0.041015625,-0.017578125,19.9375,1.125,-37.5625,19.9375,1.125,-37.5625,-0.04414111746792898,-0.5755758940295017,0.028118823832400597,0.8160718618523155,16.063907700003277,69.54389136509721,-162.61683713500113,0.60565185546875,0.42828369140625,0.385009765625,-0.54913330078125,15.905055419651926,69.51002200107285,-73.3280189457412,2.7336747795043617,,,,3,0,2,3
1788945333.585022,421796082.0,-8.99609375,1.0390625,3.30078125,-0.017578125,0.048828125,-0.02734375,17.6875,-1.375,-33.8125,17.6875,-1.375,-33.8125,-0.04434488077171634,-0.575553986358743,0.028018801422636366,0.8160797063416912,16.072105951469123,69.53908599784124,-162.58361424656349,0.60552978515625,0.4283447265625,0.38519287109375,-0.549072265625,15.893306895404976,69.53335935451592,-73.33188961349865,2.788128753870136,,,,3,0,3,3
1788945333.5872788,421799458.0,-9.03125,1.0390625,3.26171875,-0.017578125,0.048828125,-0.02734375,17.6875,-1.375,-33.8125,17.6875,-1.375,-33.8125,-0.044482097772252926,-0.575587946246832,0.027985034568515144,0.8160494451645274,16.091890482167333,69.54169334165492,-162.5497559274135,0.60552978515625,0.4283447265625,0.38519287109375,-0.549072265625,15.893306895404976,69.53335935451592,-73.33188961349865,2.785690768883549,,,,3,0,3,3
1788945333.602225,421803318.0,-8.9921875,1.0390625,3.22265625,-0.025390625,0.0546875,-0.02734375,18.1875,-0.25,-32.6875,18.1875,-0.25,-32.6875,-0.04453503709651722,-0.5756895064297827,0.027729704677055333,0.8159836310465844,16.045998085661356,69.55969301472122,-162.57030369281438,0.60552978515625,0.4283447265625,0.38519287109375,-0.549072265625,15.893306895404976,69.53335935451592,-73.33188961349865,2.7562459830123758,,,,3,0,3,3
1788945333.608792,421807700.0,-8.9921875,1.0390625,3.22265625,-0.02734375,0.060546875,-0.0390625,18.1875,-0.25,-32.6875,18.1875,-0.25,-32.6875,-0.0445797845612522,-0.5758144934355514,0.027422000233650566,0.8159033924805175,15.987460950719804,69.58210304719778,-162.5998693751278,0.60546875,0.4283447265625,0.385498046875,-0.5489501953125,15.868153239017248,69.56910292340173,-73.34127753671054,2.680744011362327,,,,3,0,3,3
1788945333.608792,421811207.0,-8.9921875,1.0390625,3.26171875,-0.013671875,0.0625,-0.04296875,18.1875,-0.25,-32.6875,18.1875,-0.25,-32.6875,-0.044598456248203855,-0.5758993750253454,0.027194825067812525,0.8158500652909362,15.940752326863054,69.59792925047572,-162.6263710140113,0.60546875,0.4283447265625,0.385498046875,-0.5489501953125,15.868153239017248,69.56910292340173,-73.34127753671054,2.653564139859462,,,,3,0,3,3
1788945333.6178405,421818866.0,-8.9140625,1.0390625,3.22265625,-0.01171875,0.064453125,-0.046875,18.1875,-1.6875,-32.8125,18.1875,-1.6875,-32.8125,-0.04469261503115314,-0.576024411853883,0.027344078001139773,0.8157516463411723,16.011072237867587,69.60979532434743,-162.56061396123266,0.60528564453125,0.4283447265625,0.3858642578125,-0.54888916015625,15.812600184975445,69.61015358186332,-73.38141626539847,2.720512442619211,,,,3,0,3,3
1788945333.6165516,421831385.0,-8.95703125,1.0390625,3.18359375,-0.009765625,0.064453125,-0.052734375,16.8125,-1.75,-33.3125,16.8125,-1.75,-33.3125,-0.044697139742696165,-0.5763927479239004,0.027659825456532342,0.8154805331185233,16.13649358511336,69.65258383347594,-162.4609111254177,0.60504150390625,0.42840576171875,0.38616943359375,-0.54888916015625,15.763896317269868,69.65095697484715,-73.42863794962622,2.797118418787971,,,,3,0,3,3
1788945333.6185048,421834691.0,-8.99609375,1.0390625,3.18359375,-0.005859375,0.068359375,-0.06640625,21.375,-2.5,-39.375,21.375,-2.5,-39.375,-0.04465714585933231,-0.5764955364094999,0.027741368883701965,0.8154072922632466,16.162340680534236,69.66546153748808,-162.44509814829613,0.60504150390625,0.42840576171875,0.38616943359375,-0.54888916015625,15.763896317269868,69.65095697484715,-73.42863794962622,2.8051277219246824,,,,3,0,2,3
1788945333.6316311,421840174.0,-8.99609375,1.0390625,3.1484375,-0.005859375,0.068359375,-0.0703125,21.375,-2.5,-39.375,21.375,-2.5,-39.375,-0.04457762601066861,-0.5766974839406945,0.02785774147324219,0.8152648609597591,16.201489251571736,69.69170945839652,-162.4221333593899,0.60479736328125,0.42840576171875,0.38653564453125,-0.54888916015625,15.692170106214384,69.6929163536187,-73.49079671286947,2.8789704555523263,,,,3,0,2,3
1788945333.6286001,421843157.0,-8.99609375,1.0,3.18359375,-0.01171875,0.064453125,-0.083984375,21.375,-2.5,-39.375,21.375,-2.5,-39.375,-0.04451403085856566,-0.5767828095593578,0.027912314844915187,0.8152061054319542,16.214005780642477,69.70327378989089,-162.41936959671492,0.60479736328125,0.42840576171875,0.38653564453125,-0.54888916015625,15.692170106214384,69.6929163536187,-73.49079671286947,2.88363740279107,,,,3,0,2,3
1788945333.6355662,421850363.0,-8.953125,1.0390625,3.22265625,-0.005859375,0.068359375,-0.078125,21.375,-2.5,-39.375,21.375,-2.5,-39.375,-0.04439970085119666,-0.5769221495314643,0.02805709024364519,0.815108765522356,16.247225538636926,69.72118502068831,-162.407517559786,0.60443115234375,0.42840576171875,0.386962890625,-0.5489501953125,15.58950377593189,69.74013106421732,-73.58429569475426,3.0386733184916186,,,,3,0,2,3
1788945333.6504107,421854222.0,-8.953125,1.0390625,3.22265625,-0.017578125,0.06640625,-0.087890625,20.6875,-1.5,-39.3125,20.6875,-1.5,-39.3125,-0.04443978828826225,-0.5769678851303395,0.027911249425003747,0.8150792151077422,16.221332409776927,69.72964620994868,-162.41812308249186,0.60443115234375,0.42840576171875,0.386962890625,-0.5489501953125,15.58950377593189,69.74013106421732,-73.58429569475426,3.022794149173355,,,,3,0,2,3
1788945333.6535416,421857929.0,-8.9140625,0.9609375,3.22265625,-0.015625,0.0625,-0.09375,20.6875,-1.5,-39.3125,20.6875,-1.5,-39.3125,-0.044382772190980475,-0.5769933629873036,0.02767395067275118,0.8150723778017552,16.15122217212332,69.73922211589658,-162.47341320994397,0.6041259765625,0.42840576171875,0.38739013671875,-0.549072265625,15.487142481980863,69.8038683694859,-73.70629550034047,2.820912857951055,,,,3,0,2,3
1788945333.6535416,421862564.0,-8.953125,0.921875,3.18359375,-0.01953125,0.06640625,-0.09375,20.9375,0.125,-37.5,20.9375,0.125,-37.5,-0.044262279135850215,-0.5771363120723259,0.0272759374526889,0.8149911356385001,16.04033404154196,69.76921628576069,-162.56152185291458,0.6041259765625,0.42840576171875,0.38739013671875,-0.549072265625,15.487142481980863,69.8038683694859,-73.70629550034047,2.770186657746378,,,,3,0,2,3
1788945333.6535416,421870447.0,-8.99609375,0.8828125,3.18359375,-0.021484375,0.068359375,-0.087890625,20.9375,0.125,-37.5,20.9375,0.125,-37.5,-0.04406132170177668,-0.577390674334307,0.026603690159721773,0.8148440665498843,15.854346868734421,69.8214691462412,-162.70883194162695,0.60382080078125,0.4283447265625,0.3878173828125,-0.54913330078125,15.375429157022683,69.8478574227668,-73.80634378519952,2.7864928503322703,,,,3,0,2,3
1788945333.669386,421874030.0,-9.03515625,0.8828125,3.1484375,-0.0234375,0.072265625,-0.08984375,17.125,-0.75,-33.1875,17.125,-0.75,-33.1875,-0.04396759926193075,-0.5775367641660899,0.02629881774878576,0.8147554899702859,15.772715620213248,69.84932005007231,-162.77314676322152,0.60382080078125,0.4283447265625,0.3878173828125,-0.54913330078125,15.375429157022683,69.8478574227668,-73.80634378519952,2.747995045742894,,,,3,0,3,3
1788945333.669386,421878013.0,-9.03125,0.84765625,3.1484375,-0.033203125,0.064453125,-0.080078125,17.125,-0.75,-33.1875,17.125,-0.75,-33.1875,-0.04387481081548873,-0.5776789816583294,0.02595327686634391,0.8146707448693609,15.679829884376629,69.87745295131633,-162.84529417375487,0.603515625,0.42828369140625,0.3883056640625,-0.5491943359375,15.25662581361317,69.9041307834248,-73.91973228705562,2.696670338925183,,,,3,0,3,3
1788945333.6674328,421881519.0,-9.03125,0.84765625,3.109375,-0.029296875,0.06640625,-0.078125,17.125,-0.75,-33.1875,17.125,-0.75,-33.1875,-0.04379338667053269,-0.5778266921673633,0.025667623075001974,0.8145794167719488,15.605379022399921,69.90484608450693,-162.9029999748546,0.603515625,0.42828369140625,0.3883056640625,-0.5491943359375,15.25662581361317,69.9041307834248,-73.91973228705562,2.6597320787163405,,,,3,0,3,3
1788945333.6874151,421890955.0,-9.03125,0.84765625,3.109375,-0.02734375,0.064453125,-0.078125,16.875,-3.625,-33.5,16.875,-3.625,-33.5,-0.04348296037190363,-0.5781152224173686,0.025788813975989377,0.8143874746337421,15.61240893900438,69.94716748656748,-162.93158619290065,0.603271484375,0.42822265625,0.38873291015625,-0.5491943359375,15.160007454863985,69.94733960273784,-73.99916385456628,2.7489402978723434,,,,3,0,3,3
1788945333.6910882,421893161.0,-9.0703125,0.80859375,3.109375,-0.0234375,0.0703125,-0.07421875,16.875,-3.625,-33.5,16.875,-3.625,-33.5,-0.043405430846145454,-0.578189597090561,0.02582086094445451,0.8143377932586714,15.61489404652382,69.9580159648864,-162.9381425423898,0.603271484375,0.42822265625,0.38873291015625,-0.5491943359375,15.160007454863985,69.94733960273784,-73.99916385456628,2.7508645662706037,,,,3,0,3,3
1788945333.6980162,421898121.0,-9.03125,0.73046875,3.109375,-0.017578125,0.0703125,-0.07421875,16.875,-3.625,-33.5,16.875,-3.625,-33.5,-0.04319383766729731,-0.5783540027899521,0.025896451098580582,0.8142298899358277,15.614170728907395,69.98266487340068,-162.96255231292625,0.60302734375,0.42816162109375,0.38916015625,-0.5491943359375,15.0630152149984,69.99056801517624,-74.07906449551788,2.8344355135877395,,,,3,0,3,3
1788945333.7018113,421901427.0,-9.03125,0.76953125,3.0703125,-0.01953125,0.0625,-0.07421875,16.875,-3.625,-33.5,16.875,-3.625,-33.5,-0.04306569178847852,-0.5784608518351142,0.02594550851698772,0.8141592102732541,15.61541384902941,69.99851200449493,-162.97592507846454,0.60302734375,0.42816162109375,0.38916015625,-0.5491943359375,15.0630152149984,69.99056801517624,-74.07906449551788,2.837374625643173,,,,3,0,3,3
1788945333.7078767,421910586.0,-8.99609375,0.84765625,3.0703125,-0.009765625,0.060546875,-0.076171875,17.8125,-0.8125,-33.0625,17.8125,-0.8125,-33.0625,-0.042816372078736696,-0.5788409713791284,0.0252891014584083,0.8139228154329553,15.435809252204056,70.06804949743797,-163.1221865348394,0.60272216796875,0.42816162109375,0.38958740234375,-0.5491943359375,14.973632918009304,70.03708559525272,-74.15418707815226,2.8767830964613474,,,,3,0,3,3
1788945333.7098298,421913169.0,-8.953125,0.80859375,3.0703125,-0.005859375,0.060546875,-0.0703125,17.8125,-0.8125,-33.0625,17.8125,-0.8125,-33.0625,-0.04274166671835674,-0.5789384251888444,0.025105597108841686,0.8138631081206509,15.383488517607821,70.08637236751072,-163.1655964272935,0.60272216796875,0.42816162109375,0.38958740234375,-0.5491943359375,14.973632918009304,70.03708559525272,-74.15418707815226,2.8542404745310925,,,,3,0,3,3
1788945333.7167838,421920752.0,-8.953125,0.921875,3.1484375,0.00390625,0.0625,-0.076171875,17.8125,-0.8125,-33.0625,17.8125,-0.8125,-33.0625,-0.04266466408218176,-0.5791180049932482,0.02460714857112272,0.8137546011978019,15.255181873107544,70.12223875801271,-163.25931045692687,0.60247802734375,0.42816162109375,0.389892578125,-0.54925537109375,14.898168625797148,70.07567990499449,-74.23189359595533,2.79970403453343,,,,3,0,3,3
1788945333.7204862,421925635.0,-8.99609375,0.9609375,3.1484375,0.005859375,0.05859375,-0.0703125,17.8125,-0.8125,-33.0625,17.8125,-0.8125,-33.0625,-0.04269872874475895,-0.579238908182866,0.02435083792943061,0.8136744696147455,15.206080243684072,70.14317019350459,-163.28457117994816,0.60247802734375,0.42816162109375,0.389892578125,-0.54925537109375,14.898168625797148,70.07567990499449,-74.23189359595533,2.770207890584372,,,,3,0,3,3
1788945333.7204862,421928841.0,-8.9921875,0.921875,3.18359375,0.005859375,0.05859375,-0.068359375,17.8125,-0.8125,-33.0625,17.8125,-0.8125,-33.0625,-0.04268039008729274,-0.5792814327126734,0.024171950920551872,0.8136504917991775,15.159208001089207,70.15288600991903,-163.31825808603355,0.6021728515625,0.42816162109375,0.3902587890625,-0.54931640625,14.807107391901178,70.11865499252565,-74.31995413878445,2.8197430503452336,,,,3,0,3,3
1788945333.7204862,421932824.0,-9.03125,0.84765625,3.1484375,0.0,0.0625,-0.0703125,22.0,-0.5625,-39.0625,22.0,-0.5625,-39.0625,-0.04258817488668635,-0.579396678383037,0.023888003535707872,0.8135816490836076,15.078094900339336,70.17591907281606,-163.3836521125623,0.6021728515625,0.42816162109375,0.3902587890625,-0.54931640625,14.807107391901178,70.11865499252565,-74.31995413878445,2.7854143828103273,,,,3,0,2,3
1788945333.736469,421937307.0,-9.03125,0.84765625,3.1484375,-0.005859375,0.05859375,-0.068359375,22.0,-0.5625,-39.0625,22.0,-0.5625,-39.0625,-0.04249854515711724,-0.5795166385705612,0.02356101114211154,0.8135104289641081,14.986217677030838,70.20038432178441,-163.45606106447582,0.60186767578125,0.42822265625,0.39056396484375,-0.54937744140625,14.73900435632342,70.16056217147745,-74.39318626165387,2.795213006173292,,,,3,0,2,3
1788945333.736469,421940283.0,-9.03515625,0.8828125,3.1484375,-0.005859375,0.05859375,-0.068359375,22.0,-0.5625,-39.0625,22.0,-0.5625,-39.0625,-0.042457562721674544,-0.5795959399674651,0.02334730352329646,0.8134622333944931,14.929496100142476,70.21616092097902,-163.4986118697219,0.60186767578125,0.42822265625,0.39056396484375,-0.54937744140625,14.73900435632342,70.16056217147745,-74.39318626165387,2.7700818003662615,,,,3,0,2,3
1788945333.736469,421944843.0,-8.99609375,0.8828125,3.1484375,0.00390625,0.05859375,-0.068359375,20.6875,-2.0,-39.75,20.6875,-2.0,-39.75,-0.0423550772615417,-0.5796734611168985,0.02348059606880927,0.8134084997805087,14.954590615816116,70.22586609735768,-163.4929351168281,0.60186767578125,0.42822265625,0.39056396484375,-0.54937744140625,14.73900435632342,70.16056217147745,-74.39318626165387,2.7827445620183777,,,,3,0,2,3
1788945333.732534,421951602.0,-9.03515625,0.80859375,3.1484375,-0.001953125,0.05859375,-0.0703125,20.6875,-2.0,-39.75,20.6875,-2.0,-39.75,-0.04203823973214141,-0.5797879187617755,0.023633092085623753,0.813338940796876,14.948338873139749,70.2440970840043,-163.53783497765534,0.6015625,0.42822265625,0.39093017578125,-0.54949951171875,14.639405619471248,70.21241555533983,-74.50733301863083,2.7037207079078844,,,,3,0,2,3
1788945333.7522998,421952655.0,-8.99609375,0.80859375,3.109375,-0.001953125,0.05859375,-0.06640625,20.6875,-2.0,-39.75,20.6875,-2.0,-39.75,-0.041992417185865556,-0.5798178552750025,0.02365844574971996,0.8133192297910408,14.949791127318552,70.24848372383995,-163.54224736739081,0.6015625,0.42822265625,0.39093017578125,-0.54949951171875,14.639405619471248,70.21241555533983,-74.50733301863083,2.7056975316697263,,,,3,0,2,3
1788945333.7522998,421960514.0,-8.9921875,0.84765625,3.109375,0.01171875,0.05859375,-0.072265625,20.6875,-2.0,-39.75,20.6875,-2.0,-39.75,-0.0417250453599203,-0.580028741489463,0.023909303091556963,0.8131752731493612,14.990094759585945,70.27694513226865,-163.54463354145128,0.60125732421875,0.42822265625,0.3912353515625,-0.549560546875,14.554142465058026,70.24301214107139,-74.5835494881053,2.902537926120312,,,,3,0,2,3
1788945333.7600372,421963797.0,-8.953125,0.921875,3.109375,0.0078125,0.05859375,-0.072265625,20.9375,-1.75,-38.0,20.9375,-1.75,-38.0,-0.041699431153755184,-0.5800973103095378,0.023991682677433533,0.8131252469179631,15.015081301698975,70.28506744664506,-163.52854746746374,0.60125732421875,0.42822265625,0.3912353515625,-0.549560546875,14.554142465058026,70.24301214107139,-74.5835494881053,2.910885752722327,,,,3,0,2,3
1788945333.769065,421968080.0,-8.99609375,0.921875,3.0703125,0.005859375,0.060546875,-0.080078125,20.9375,-1.75,-38.0,20.9375,-1.75,-38.0,-0.04163909509434156,-0.5802640634616109,0.024062958635557206,0.8130072425485811,15.041317633715737,70.30736232818981,-163.51318496683461,0.6009521484375,0.42828369140625,0.39154052734375,-0.5496826171875,14.477210692524713,70.29386472420194,-74.68326135450243,2.80928814543171,,,,3,0,2,3
1788945333.769065,421971739.0,-8.9921875,0.84765625,3.109375,0.009765625,0.0625,-0.078125,16.8125,-3.1875,-33.75,16.8125,-3.1875,-33.75,-0.0414906124822699,-0.5803561325778669,0.024170773228819276,0.8129459158988551,15.05247258267327,70.32041159913098,-163.5231376626522,0.6009521484375,0.42828369140625,0.39154052734375,-0.5496826171875,14.477210692524713,70.29386472420194,-74.68326135450243,2.8187504347785715,,,,3,0,3,3
1788945333.7777216,421979422.0,-8.9921875,0.84765625,3.109375,0.015625,0.064453125,-0.078125,16.8125,-3.1875,-33.75,16.8125,-3.1875,-33.75,-0.041166019269662825,-0.5805549523393145,0.02441518274523617,0.8128131427476446,15.078968156418531,70.34844641418738,-163.54349778395536,0.6005859375,0.4283447265625,0.391845703125,-0.54974365234375,14.399195185993763,70.32773765557091,-74.75510587566168,3.0486071149689256,,,,3,0,3,3
1788945333.7816033,421984182.0,-8.9921875,0.8828125,3.0703125,0.009765625,0.060546875,-0.080078125,18.5625,0.25,-32.1875,18.5625,0.25,-32.1875,-0.041041762124421045,-0.5807082389624538,0.02408561133278842,0.8127197538448133,14.982651117327949,70.37808582107986,-163.62299203954075,0.6005859375,0.4283447265625,0.391845703125,-0.54974365234375,14.399195185993763,70.32773765557091,-74.75510587566168,3.0097259863395798,,,,3,0,3,3
1788945333.786307,421991841.0,-9.03515625,0.84765625,3.0703125,0.01171875,0.0546875,-0.078125,18.5625,0.25,-32.1875,18.5625,0.25,-32.1875,-0.04082302018988108,-0.5809416028510125,0.02356468051498999,0.8125792520928032,14.824638643168232,70.42405808814178,-163.7562516677842,0.60028076171875,0.4283447265625,0.3922119140625,-0.54986572265625,14.297981038979607,70.37972657391506,-74.87128729694587,2.8592789779300833,,,,3,0,3,3
1788945333.7924256,421996147.0,-9.0703125,0.84765625,3.0703125,0.009765625,0.060546875,-0.076171875,18.5625,0.25,-32.1875,18.5625,0.25,-32.1875,-0.04069738879503098,-0.5810997115182187,0.023242554102943718,0.8124817730247744,14.729963207397873,70.45414305288527,-163.83483393131866,0.60028076171875,0.4283447265625,0.3922119140625,-0.54986572265625,14.297981038979607,70.37972657391506,-74.87128729694587,2.8196647766948235,,,,3,0,3,3
1788945333.7978714,421999154.0,-9.07421875,0.84765625,2.9921875,0.017578125,0.056640625,-0.08203125,18.5625,0.25,-32.1875,18.5625,0.25,-32.1875,-0.04060308113890745,-0.5812150715281755,0.023051561020552412,0.8124094140056729,14.672252195895302,70.47525918892258,-163.88464046226048,0.59991455078125,0.42840576171875,0.39251708984375,-0.54998779296875,14.211279337087994,70.42253323237468,-74.969439608627,2.8538404410491625,,,,3,0,3,3
1788945333.8062923,422007419.0,-9.109375,0.8828125,3.0703125,0.01171875,0.048828125,-0.083984375,18.8125,-2.75,-33.4375,18.8125,-2.75,-33.4375,-0.04029887435283677,-0.5814221429655957,0.023285242431028207,0.8122697149839558,14.700152878825461,70.5042859608611,-163.9010287550217,0.599609375,0.42840576171875,0.392822265625,-0.55010986328125,14.116330973444525,70.4620688160022,-75.0731684591978,2.8869111356163453,,,,3,0,3,3
1788945333.8075488,422011172.0,-9.11328125,0.921875,3.0703125,0.01171875,0.048828125,-0.083984375,18.8125,-2.75,-33.4375,18.8125,-2.75,-33.4375,-0.04017098278271793,-0.5815137313814414,0.023391866191120686,0.8122074199077475,14.714681917972706,70.51694747043412,-163.9058080977076,0.599609375,0.42840576171875,0.392822265625,-0.55010986328125,14.116330973444525,70.4620688160022,-75.0731684591978,2.8964919386421655,,,,3,0,3,3
1788945333.8138132,422015355.0,-9.07421875,0.84765625,3.03125,0.01171875,0.046875,-0.076171875,18.0625,1.5,-33.125,18.0625,1.5,-33.125,-0.04006198808960425,-0.5816313024036991,0.023112255764465066,0.812136619546221,14.629875629017887,70.54034589004868,-163.97663519672307,0.599609375,0.42840576171875,0.392822265625,-0.55010986328125,14.116330973444525,70.4620688160022,-75.0731684591978,2.862435738586487,,,,3,0,3,3
1788945333.8171978,422020938.0,-9.109375,0.84765625,3.03125,0.00390625,0.048828125,-0.080078125,18.0625,1.5,-33.125,18.0625,1.5,-33.125,-0.0399209729518499,-0.5817946391748419,0.02271563822239304,0.8120377537566479,14.511538152426576,70.57278245821033,-164.07402635934787,0.59930419921875,0.42840576171875,0.39306640625,-0.55023193359375,14.02820511702505,70.48906339442094,-75.16372681857983,2.9300693608621633,,,,3,0,3,3
1788945333.8121848,422026221.0,-9.11328125,0.80859375,3.03125,-0.001953125,0.05078125,-0.0859375,18.0625,1.5,-33.125,18.0625,1.5,-33.125,-0.03977633373318765,-0.5819511169298137,0.022316882614150046,0.8119437773203725,14.390830308388816,70.60433881006223,-164.17391003902077,0.59930419921875,0.42840576171875,0.39306640625,-0.55023193359375,14.02820511702505,70.48906339442094,-75.16372681857983,2.88328015186537,,,,3,0,3,3
1788945333.819151,422027550.0,-9.0703125,0.76953125,3.03125,-0.001953125,0.0390625,-0.078125,18.0625,1.5,-33.125,18.0625,1.5,-33.125,-0.03974240299213646,-0.5819825507778765,0.022219352827646813,0.8119255830150984,14.360800408800063,70.61109178557078,-164.1987259894141,0.5989990234375,0.42840576171875,0.3934326171875,-0.55035400390625,13.925322446871544,70.54117931507591,-75.28199514894156,2.775527968186513,,,,3,0,3,3
1788945333.8171978,422031580.0,-9.0703125,0.76953125,2.9921875,-0.001953125,0.0390625,-0.078125,18.0625,1.5,-33.125,18.0625,1.5,-33.125,-0.039639365368024766,-0.5820857023612976,0.021925743591383197,0.8118646547225346,14.271028207942901,70.6325780568564,-164.27287812541914,0.5989990234375,0.42840576171875,0.3934326171875,-0.55035400390625,13.925322446871544,70.54117931507591,-75.28199514894156,2.739442116948231,,,,3,0,3,3
1788945333.819151,422034486.0,-9.03125,0.73046875,2.9921875,-0.001953125,0.0390625,-0.078125,21.4375,-1.9375,-38.9375,21.4375,-1.9375,-38.9375,-0.039501099184079264,-0.5822050694256283,0.02191036299033187,0.811786213415811,14.252661164495013,70.65155058838461,-164.30138797129555,0.5989990234375,0.42840576171875,0.3934326171875,-0.55035400390625,13.925322446871544,70.54117931507591,-75.28199514894156,2.734899153773352,,,,3,0,2,3
1788945333.8357337,422041346.0,-8.99609375,0.65625,3.03125,0.00390625,0.0390625,-0.08203125,21.4375,-1.9375,-38.9375,21.4375,-1.9375,-38.9375,-0.038956887570272866,-0.5824000669816808,0.021715051281875435,0.8116778791111632,14.113391978947757,70.6912734032092,-164.46942171939446,0.5987548828125,0.4283447265625,0.39373779296875,-0.55047607421875,13.821473964507533,70.57745749413293,-75.39210589482984,2.6651123857779693,,,,3,0,2,3
1788945333.8346546,422042699.0,-9.03125,0.69140625,3.03125,0.00390625,0.029296875,-0.078125,21.4375,-1.9375,-38.9375,21.4375,-1.9375,-38.9375,-0.03886349745094468,-0.5824394033169791,0.02170852727704405,0.8116543044135871,14.097516166665688,70.698371819067,-164.49245267743083,0.5987548828125,0.4283447265625,0.39373779296875,-0.55047607421875,13.821473964507533,70.57745749413293,-75.39210589482984,2.6627672172075765,,,,3,0,2,3
1788945333.8436823,422046282.0,-8.99609375,0.65625,2.9921875,0.009765625,0.033203125,-0.078125,21.4375,-1.9375,-38.9375,21.4375,-1.9375,-38.9375,-0.038617097013373264,-0.5825660933701996,0.021642234668972193,0.8115769096962882,14.044411758143639,70.72114419278401,-164.56040868010612,0.59844970703125,0.42828369140625,0.39398193359375,-0.5506591796875,13.707799524629964,70.60185955104998,-75.51152267220502,2.739612752216969,,,,3,0,2,3
1788945333.8417292,422050911.0,-9.03125,0.65625,3.0703125,0.009765625,0.033203125,-0.078125,21.4375,-1.9375,-38.9375,21.4375,-1.9375,-38.9375,-0.03823032632741144,-0.5826113178628902,0.021558762657859977,0.8115649784210923,13.950300573955635,70.73548814064289,-164.67947858255548,0.59844970703125,0.42828369140625,0.39398193359375,-0.5506591796875,13.707799524629964,70.60185955104998,-75.51152267220502,2.72411500210175,,,,3,0,2,3
1788945333.8538132,422054894.0,-8.95703125,0.65625,3.03125,0.009765625,0.02734375,-0.07421875,21.875,-2.625,-40.3125,21.875,-2.625,-40.3125,-0.03799962229764591,-0.5826580352615565,0.021657375212832966,0.8115396482916098,13.937293294082028,70.74395826420123,-164.71957019519044,0.59844970703125,0.42828369140625,0.39398193359375,-0.5506591796875,13.707799524629964,70.60185955104998,-75.51152267220502,2.732475543044136,,,,3,0,2,3
1788945333.8508523,422060977.0,-8.95703125,0.69140625,3.0703125,0.01171875,0.0234375,-0.0703125,21.875,-2.625,-40.3125,21.875,-2.625,-40.3125,-0.037704968798452865,-0.5826690758644254,0.021836392837408368,0.8115406676852704,13.930264577943007,70.74715016000593,-164.76553685950955,0.59814453125,0.42828369140625,0.3941650390625,-0.55084228515625,13.617693132431706,70.62523467678845,-75.6154066751065,2.814532465315421,,,,3,0,2,3
1788945333.8547873,422061830.0,-8.95703125,0.65625,3.109375,0.0078125,0.02734375,-0.0703125,21.875,-2.625,-40.3125,21.875,-2.625,-40.3125,-0.03766035591169643,-0.5826650375877619,0.021852644893450936,0.8115452011296826,13.925593131825568,70.74705507090088,-164.7752106749162,0.59814453125,0.42828369140625,0.3941650390625,-0.55084228515625,13.617693132431706,70.62523467678845,-75.6154066751065,2.8158536032733013,,,,3,0,2,3
1788945333.8547873,422066260.0,-8.95703125,0.69140625,3.0703125,0.0078125,0.02734375,-0.0703125,21.875,-2.625,-40.3125,21.875,-2.625,-40.3125,-0.037450680304018075,-0.5826788388580403,0.021975161497319977,0.8115416868953677,13.919863376488834,70.75023386960875,-164.80824959382642,0.59814453125,0.42828369140625,0.3941650390625,-0.55084228515625,13.617693132431706,70.62523467678845,-75.6154066751065,2.827410689393402,,,,3,0,2,3
1788945333.8547873,422070443.0,-8.9921875,0.69140625,3.109375,0.009765625,0.021484375,-0.060546875,21.875,-2.625,-40.3125,21.875,-2.625,-40.3125,-0.03726895121771733,-0.5826600357286866,0.022093600850752376,0.8115603371538217,13.915074114255201,70.74856093046544,-164.83770670631716,0.597900390625,0.42822265625,0.39434814453125,-0.55096435546875,13.527722319234146,70.63625646911359,-75.6988690478144,3.0083154463009425,,,,3,0,2,3
1788945333.8695264,422074025.0,-8.9921875,0.69140625,3.109375,0.00390625,0.021484375,-0.0625,17.6875,-2.375,-34.25,17.6875,-2.375,-34.25,-0.037119761139318495,-0.582653418904704,0.0221926746307485,0.8115692219178553,13.912579619240809,70.74836120857789,-164.86060572998133,0.597900390625,0.42822265625,0.39434814453125,-0.55096435546875,13.527722319234146,70.63625646911359,-75.6988690478144,3.0175790445072335,,,,3,0,3,3
1788945333.8655913,422081685.0,-8.95703125,0.69140625,3.0703125,0.00390625,0.0234375,-0.0546875,17.6875,-2.375,-34.25,17.6875,-2.375,-34.25,-0.03682286183506343,-0.5826758019931729,0.022435699261373437,0.8115599953278512,13.9240538671943,70.75198623233307,-164.8935142379454,0.59771728515625,0.42822265625,0.39453125,-0.55108642578125,13.462867353543382,70.66721617005003,-75.78335584502284,2.926229079289826,,,,3,0,3,3
1788945333.8695264,422082238.0,-8.9921875,0.65625,3.0703125,0.009765625,0.01953125,-0.04296875,17.6875,-2.375,-34.25,17.6875,-2.375,-34.25,-0.03679904407102991,-0.5826772480091659,0.022454949877101123,0.8115595050481144,13.92487010558783,70.75223436228775,-164.89623820095008,0.59771728515625,0.42822265625,0.39453125,-0.55108642578125,13.462867353543382,70.66721617005003,-75.78335584502284,2.9281836599181306,,,,3,0,3,3
1788945333.877459,422085791.0,-8.9921875,0.69140625,3.109375,0.009765625,0.01953125,-0.04296875,17.6875,-2.375,-34.25,17.6875,-2.375,-34.25,-0.03667205857104317,-0.5826659496722046,0.022580721774914707,0.8115698751289834,13.933655015610576,70.75053536321184,-164.90822435263027,0.59771728515625,0.42822265625,0.39453125,-0.55108642578125,13.462867353543382,70.66721617005003,-75.78335584502284,2.9413723203814746,,,,3,0,3,3
1788945333.8871508,422089297.0,-8.9921875,0.69140625,3.109375,0.009765625,0.021484375,-0.0390625,17.6875,-2.375,-34.25,17.6875,-2.375,-34.25,-0.036551756838857155,-0.5826570720459378,0.022708252131820605,0.8115781174674227,13.944494431332215,70.7490243703031,-164.91775157234605,0.59759521484375,0.42822265625,0.3946533203125,-0.55120849609375,13.414129694029313,70.69390800300525,-75.85691918937228,2.772411515104502,,,,3,0,3,3
1788945333.8871508,422093757.0,-8.9921875,0.69140625,3.109375,0.0078125,0.0234375,-0.03125,17.375,0.0625,-33.6875,17.375,0.0625,-33.6875,-0.036494047700702394,-0.5826866393291382,0.022462413774310082,0.8115663280331221,13.86804661930795,70.7585527064831,-164.97875337745955,0.59759521484375,0.42822265625,0.3946533203125,-0.55120849609375,13.414129694029313,70.69390800300525,-75.85691918937228,2.7415701731190425,,,,3,0,3,3
1788945333.8977242,422097263.0,-8.99609375,0.65625,3.03125,0.00390625,0.017578125,-0.02734375,17.375,0.0625,-33.6875,17.375,0.0625,-33.6875,-0.03644903031071734,-0.5827271298806469,0.022264321526977573,0.8115447370770237,13.808420248479,70.76846891747539,-165.0258158447886,0.59747314453125,0.42822265625,0.394775390625,-0.55120849609375,13.381560819065161,70.70249109450552,-75.87918622924589,2.8451752575102778,,,,3,0,3,3
1788945333.8984447,422101246.0,-9.03125,0.69140625,3.03125,-0.00390625,0.013671875,-0.025390625,17.375,0.0625,-33.6875,17.375,0.0625,-33.6875,-0.036420195975367664,-0.5827715303924711,0.022029964645956062,0.8115205440078711,13.742254933645242,70.77929527749684,-165.0751087114883,0.59747314453125,0.42822265625,0.394775390625,-0.55120849609375,13.381560819065161,70.70249109450552,-75.87918622924589,2.8171113563602996,,,,3,0,3,3
1788945333.9023798,422105199.0,-9.03515625,0.69140625,3.0703125,-0.00390625,0.013671875,-0.025390625,19.3125,-2.125,-32.0625,19.3125,-2.125,-32.0625,-0.036318433202785695,-0.5827752661837755,0.02217835865599965,0.8115183799159759,13.763852486014137,70.77881593321892,-165.0740697509542,0.59747314453125,0.42822265625,0.394775390625,-0.55120849609375,13.381560819065161,70.70249109450552,-75.87918622924589,2.8335780448141263,,,,3,0,3,3
1788945333.906991,422110682.0,-9.07421875,0.69140625,3.109375,0.015625,0.021484375,-0.025390625,19.3125,-2.125,-32.0625,19.3125,-2.125,-32.0625,-0.036144509466909495,-0.582761495885126,0.022410619287405183,0.8115296528730677,13.792748780470435,70.77563374022785,-165.0785508092822,0.59735107421875,0.42822265625,0.3948974609375,-0.55120849609375,13.348946439550163,70.711067521315,-75.901500907074,2.9817266446347714,,,,3,0,3,3
1788945333.90396,422116064.0,-9.03515625,0.73046875,3.0703125,0.005859375,0.015625,-0.017578125,19.3125,-2.125,-32.0625,19.3125,-2.125,-32.0625,-0.036054422299961496,-0.5827736566149754,0.022658580015697156,0.8115180420298116,13.845175494102099,70.77430474479297,-165.05390478862066,0.59735107421875,0.42822265625,0.3948974609375,-0.55120849609375,13.348946439550163,70.711067521315,-75.901500907074,3.0090094306561594,,,,3,0,3,3
1788945333.910926,422117494.0,-9.03515625,0.73046875,3.0703125,0.0,0.01953125,-0.017578125,19.3125,-2.125,-32.0625,19.3125,-2.125,-32.0625,-0.036031852049577574,-0.5827786208348623,0.02272071108852374,0.8115137423502605,13.858511509166675,70.77423358149393,-165.04752993772618,0.5972900390625,0.42822265625,0.39495849609375,-0.55120849609375,13.332622155445009,70.71535323284768,-75.91267614675695,3.0745275156098826,,,,3,0,3,3
1788945333.9169936,422121224.0,-8.99609375,0.73046875,3.0703125,0.0,0.01953125,-0.017578125,19.3125,-2.125,-32.0625,19.3125,-2.125,-32.0625,-0.03597584505505728,-0.5827790219119272,0.02288012440300614,0.8115114602390129,13.891820882042618,70.77233118726117,-165.03192209708817,0.5972900390625,0.42822265625,0.39495849609375,-0.55120849609375,13.332622155445009,70.71535323284768,-75.91267614675695,3.09183937344665,,,,3,0,3,3
1788945333.9189467,422124530.0,-8.99609375,0.73046875,3.0703125,-0.00390625,0.021484375,-0.013671875,17.3125,0.0,-34.0625,17.3125,0.0,-34.0625,-0.03597995121008081,-0.5828079587342373,0.022697430046458203,0.8114956272317416,13.844885295723772,70.77954724093622,-165.0635168748407,0.5972900390625,0.42822265625,0.39495849609375,-0.55120849609375,13.332622155445009,70.71535323284768,-75.91267614675695,3.0713842458866787,,,,3,0,3,3
1788945333.926365,422131189.0,-8.9921875,0.69140625,3.109375,0.0,0.021484375,-0.013671875,17.3125,0.0,-34.0625,17.3125,0.0,-34.0625,-0.03595960186341316,-0.5828391839705453,0.022345675554337044,0.8114838651793355,13.746351582683884,70.79054793681294,-165.13483203547307,0.59722900390625,0.42828369140625,0.39508056640625,-0.55120849609375,13.325277790324604,70.74397829457824,-75.93586697970643,2.8692695980208236,,,,3,0,3,3
1788945333.9322894,422132496.0,-8.953125,0.73046875,3.109375,0.0,0.021484375,-0.005859375,17.3125,0.0,-34.0625,17.3125,0.0,-34.0625,-0.035965211354560565,-0.5828423721519385,0.022281471477380195,0.8114830921376771,13.729934020013108,70.79205268415889,-165.14551451162015,0.59722900390625,0.42828369140625,0.39508056640625,-0.55120849609375,13.325277790324604,70.74397829457824,-75.93586697970643,2.8617359541561123,,,,3,0,3,3
1788945333.9354746,422140202.0,-8.9921875,0.69140625,3.03125,-0.005859375,0.01953125,-0.00390625,17.3125,0.0,-34.0625,17.3125,0.0,-34.0625,-0.03598710803504515,-0.5829323283767922,0.021868293120710283,0.8114287438490655,13.6285628559342,70.81146194410822,-165.21116255338205,0.59716796875,0.42828369140625,0.3951416015625,-0.5511474609375,13.317079956739871,70.73918174625582,-75.92131589627259,3.024709413003997,,,,3,0,3,3
1788945333.9354746,422145038.0,-8.99609375,0.69140625,3.0703125,-0.001953125,0.021484375,0.0,22.0625,-0.5,-38.75,22.0625,-0.5,-38.75,-0.03598986769210999,-0.5829668407252978,0.021623620023715703,0.8114103838966689,13.564527375001736,70.82054496246387,-165.2548792807746,0.59716796875,0.42828369140625,0.3951416015625,-0.5511474609375,13.317079956739871,70.73918174625582,-75.92131589627259,2.9976883910642287,,,,3,0,2,3
1788945333.9354746,422148744.0,-8.953125,0.6171875,3.0703125,-0.005859375,0.021484375,-0.00390625,22.0625,-0.5,-38.75,22.0625,-0.5,-38.75,-0.035968499566464154,-0.5829876377583194,0.021428674731791553,0.8114015609789956,13.508136363049458,70.8272449284502,-165.29701730955583,0.59716796875,0.4283447265625,0.395263671875,-0.55108642578125,13.326729587915764,70.76712815811747,-75.92162211933172,2.795919961347674,,,,3,0,2,3
1788945333.9434996,422152150.0,-8.95703125,0.69140625,3.0703125,0.0078125,0.01953125,0.00390625,22.0625,-0.5,-38.75,22.0625,-0.5,-38.75,-0.0359694693882668,-0.583001758697029,0.021276197379223694,0.811395384540224,13.467283235117335,70.8318933074835,-165.32526834105036,0.59716796875,0.4283447265625,0.395263671875,-0.55108642578125,13.326729587915764,70.76712815811747,-75.92162211933172,2.7780044331963287,,,,3,0,2,3
1788945333.95776,422160010.0,-8.99609375,0.65625,3.03125,0.0078125,0.021484375,0.001953125,20.6875,-2.5,-39.8125,20.6875,-2.5,-39.8125,-0.03580015742256488,-0.5830740354166672,0.021659617976899234,0.8113407908521164,13.548060534265662,70.83771852130553,-165.28992448396056,0.59710693359375,0.42840576171875,0.395263671875,-0.551025390625,13.342578054468879,70.76134141852584,-75.89094380815867,3.014177893160743,,,,3,0,2,3
1788945333.959778,422163793.0,-8.9921875,0.6171875,3.0703125,0.015625,0.021484375,0.0078125,21.5625,-0.8125,-37.875,21.5625,-0.8125,-37.875,-0.035760641335958736,-0.5830961741231738,0.021508209824825743,0.811330650945895,13.500305075636224,70.84411507978662,-165.32849579946827,0.59710693359375,0.42840576171875,0.395263671875,-0.551025390625,13.342578054468879,70.76134141852584,-75.89094380815867,2.997227626946557,,,,3,0,2,3
1788945333.9650424,422168175.0,-9.03125,0.65625,3.0703125,0.015625,0.02734375,0.01171875,21.5625,-0.8125,-37.875,21.5625,-0.8125,-37.875,-0.03573640192276755,-0.5831387758592429,0.021333477820168124,0.8113057132740372,13.451120190668428,70.85347194320153,-165.3653297635626,0.5970458984375,0.42852783203125,0.39532470703125,-0.551025390625,13.359301462865197,70.7890360224132,-75.89806911720667,2.7919897158201232,,,,3,0,2,3
1788945333.9689775,422172335.0,-8.9921875,0.69140625,3.03125,0.017578125,0.02734375,0.015625,17.6875,-0.4375,-33.6875,17.6875,-0.4375,-33.6875,-0.03574940755898406,-0.583198505885073,0.021172726925219716,0.811266416306721,13.414911234630281,70.86430941414315,-165.38727898453493,0.5970458984375,0.42852783203125,0.39532470703125,-0.551025390625,13.359301462865197,70.7890360224132,-75.89806911720667,2.773032891182412,,,,3,0,3,3
1788945333.9670243,422180018.0,-9.03515625,0.65625,3.03125,0.0234375,0.021484375,0.017578125,17.6875,-0.4375,-33.6875,17.6875,-0.4375,-33.6875,-0.03573151019295992,-0.583304127283001,0.020900815854767663,0.8111983174110705,13.34614931557979,70.88391582990684,-165.43520218140588,0.5970458984375,0.42864990234375,0.39532470703125,-0.5509033203125,13.408785421240523,70.79423904024043,-75.84233396113893,2.8013920319713788,,,,3,0,3,3
1788945333.9855776,422184377.0,-9.03515625,0.65625,3.03125,0.02734375,0.021484375,0.01953125,19.125,-2.25,-33.0625,19.125,-2.25,-33.0625,-0.035661250397564535,-0.5833501052612453,0.021176421802158313,0.8111611979572453,13.413883048780914,70.88646466031967,-165.39589396954676,0.5970458984375,0.42864990234375,0.39532470703125,-0.5509033203125,13.408785421240523,70.79423904024043,-75.84233396113893,2.8319202402105654,,,,3,0,3,3
1788945333.9836245,422187683.0,-9.03515625,0.65625,2.9921875,0.033203125,0.01953125,0.021484375,19.125,-2.25,-33.0625,19.125,-2.25,-33.0625,-0.0356044834120884,-0.5834073087329614,0.02138421889016745,0.8111170988583454,13.466511586622183,70.89153172926817,-165.36501420452703,0.59698486328125,0.4288330078125,0.395263671875,-0.55084228515625,13.465345642683825,70.79916304479814,-75.79338282436518,2.9074475720643225,,,,3,0,3,3
1788945333.9836245,422192066.0,-9.0703125,0.69140625,2.95703125,0.0390625,0.013671875,0.02734375,19.125,-2.25,-33.0625,19.125,-2.25,-33.0625,-0.035560012566736965,-0.583498028145713,0.0216643256706126,0.8110463572753137,13.545245401949717,70.89968847650427,-165.3129653904634,0.59698486328125,0.4288330078125,0.395263671875,-0.55084228515625,13.465345642683825,70.79916304479814,-75.79338282436518,2.9377313619853123,,,,3,0,3,3
1788945333.9855776,422199149.0,-9.11328125,0.76953125,3.03125,0.044921875,0.005859375,0.033203125,17.8125,-1.75,-33.1875,17.8125,-1.75,-33.1875,-0.03556548184976339,-0.5835720252122286,0.022195697783555995,0.8109785070458978,13.70243840646352,70.90017965140565,-165.19898723003962,0.59698486328125,0.42901611328125,0.3951416015625,-0.55078125,13.538287715147845,70.7997912867026,-75.73322399504657,2.987016322849311,,,,3,0,3,3
1788945334.0027428,422203208.0,-9.109375,0.80859375,2.95703125,0.04296875,0.0078125,0.03515625,18.4375,-0.3125,-32.9375,18.4375,-0.3125,-32.9375,-0.03562164452807884,-0.5836606307591089,0.02214432827200019,0.8109136792953837,13.708395249626628,70.9123014488468,-165.1842140623956,0.59698486328125,0.42901611328125,0.3951416015625,-0.55078125,13.538287715147845,70.7997912867026,-75.73322399504657,2.981308646031079,,,,3,0,3,3
1788945333.9988077,422210791.0,-9.0703125,0.8828125,2.9921875,0.04296875,0.00390625,0.029296875,18.4375,-0.3125,-32.9375,18.4375,-0.3125,-32.9375,-0.035822960721968694,-0.5837827003776656,0.022060775593128915,0.8108192131450157,13.737659332288155,70.92715603552872,-165.1315670424307,0.59698486328125,0.42926025390625,0.39495849609375,-0.55072021484375,13.63531747565914,70.79942783856112,-75.65696537528319,2.9447966052265286,,,,3,0,3,3
1788945334.0027428,422215174.0,-9.07421875,0.84765625,3.03125,0.046875,0.0,0.02734375,18.4375,-0.3125,-32.9375,18.4375,-0.3125,-32.9375,-0.03590871378792289,-0.5838130772724446,0.021985578817469053,0.8107955903949137,13.736815282763265,70.93124094077464,-165.11919301877572,0.59698486328125,0.42926025390625,0.39495849609375,-0.55072021484375,13.63531747565914,70.79942783856112,-75.65696537528319,2.937036229066253,,,,3,0,3,3
1788945334.017264,422219080.0,-9.07421875,0.84765625,3.03125,0.05078125,0.0,0.02734375,18.4375,-0.3125,-32.9375,18.4375,-0.3125,-32.9375,-0.03598138348297219,-0.5838400323146358,0.021925022068073834,0.810774598835466,13.737115164318618,70.93481210884485,-165.10795228816468,0.59698486328125,0.429443359375,0.39483642578125,-0.55072021484375,13.700122787702364,70.80917443462087,-75.62268592549002,2.7665638785074487,,,,3,0,3,3
1788945334.0186765,422222863.0,-9.07421875,0.84765625,3.03125,0.04296875,-0.0078125,0.029296875,18.375,-2.8125,-33.875,18.375,-2.8125,-33.875,-0.03598442026013057,-0.5838304230533584,0.02221225834527885,0.8107735653035819,13.817050753927743,70.92821894649926,-165.05135761219785,0.59698486328125,0.429443359375,0.39483642578125,-0.55072021484375,13.700122787702364,70.80917443462087,-75.62268592549002,2.7997911445422843,,,,3,0,3,3
1788945334.0254474,422227146.0,-8.9921875,0.80859375,3.0703125,0.03125,-0.009765625,0.03125,18.375,-2.8125,-33.875,18.375,-2.8125,-33.875,-0.03599667743998864,-0.5837888956158477,0.022518094762828282,0.8107944868936656,13.900619656448294,70.9167414897154,-164.99189280838092,0.59698486328125,0.42962646484375,0.3946533203125,-0.55072021484375,13.77233292719325,70.80622151943389,-75.57443423439656,2.7754958571537416,,,,3,0,3,3
