pc_unix,dev_us,ax,ay,az,gx,gy,gz,mx_raw,my_raw,mz_raw,mx,my,mz,host_qw,host_qx,host_qy,host_qz,host_roll,host_pitch,host_yaw,chip_qw,chip_qx,chip_qy,chip_qz,chip_roll,chip_pitch,chip_yaw,diff_deg,rel_roll,rel_pitch,rel_yaw,cal_acc,cal_gyr,cal_mag,cal_rv
1788945655.5486875,743754166.0,-9.375,0.80859375,1.4609375,-0.013671875,-0.015625,-0.044921875,24.5,-1.75,-29.375,24.5,-1.75,-29.375,-0.008251536836784418,-0.6464981652690734,0.04834145866241911,0.7613377291438688,27.8652309725374,79.61195244684737,-155.39702815780734,0.53497314453125,0.4984130859375,0.41387939453125,-0.54229736328125,27.722172175655718,79.54727208594528,-67.56231884012368,2.38464186113876,,,,3,0,3,3
1788945655.5497308,743758272.0,-9.375,0.80859375,1.4609375,-0.017578125,-0.015625,-0.041015625,24.5,-1.75,-29.375,24.5,-1.75,-29.375,-0.008212342455768228,-0.6465084050172404,0.048057361192130096,0.7613474434899629,27.725428229211268,79.62359137850883,-155.51686700512528,0.53497314453125,0.49822998046875,0.41400146484375,-0.5423583984375,27.59229429336119,79.54500876548116,-67.67148728904766,2.4208175058668293,,,,3,0,3,3
1788945655.5457957,743763555.0,-9.30078125,0.76953125,1.5,-0.013671875,-0.015625,-0.04296875,24.5,-1.75,-29.375,24.5,-1.75,-29.375,-0.008141667528733389,-0.6465008530250069,0.04769421873304218,0.7613774502749834,27.531344962376703,79.63632518725716,-155.68711266449478,0.53497314453125,0.49822998046875,0.41400146484375,-0.5423583984375,27.59229429336119,79.54500876548116,-67.67148728904766,2.384970382224406,,,,3,0,3,3
1788945655.5497308,743765808.0,-9.30078125,0.76953125,1.5390625,-0.013671875,-0.015625,-0.04296875,24.4375,-3.3125,-30.1875,24.4375,-3.3125,-30.1875,-0.008105934699361252,-0.6464722702366892,0.047548900795970156,0.7614111896148925,27.44160204026166,79.63819265280623,-155.76793138210894,0.53497314453125,0.49822998046875,0.41400146484375,-0.5423583984375,27.59229429336119,79.54500876548116,-67.67148728904766,2.3700006434340506,,,,3,0,3,3
1788945655.562697,743773868.0,-9.3359375,0.76953125,1.5,-0.015625,-0.021484375,-0.03515625,24.4375,-3.3125,-30.1875,24.4375,-3.3125,-30.1875,-0.007999867570349662,-0.6464728573700356,0.04701457681132976,0.7614449923467419,27.1585403897333,79.65835565801868,-156.01608554944863,0.53497314453125,0.49798583984375,0.41412353515625,-0.54248046875,27.41220870201704,79.54101972525096,-67.83330397865036,2.372810468614243,,,,3,0,3,3
1788945655.561583,743774021.0,-9.33984375,0.73046875,1.5390625,-0.01953125,-0.021484375,-0.03125,24.4375,-3.3125,-30.1875,24.4375,-3.3125,-30.1875,-0.007997215496826379,-0.6464710172161082,0.04700478951381578,0.7614471867481222,27.152422765239542,79.65849634606658,-156.02162207966873,0.53497314453125,0.49798583984375,0.41412353515625,-0.54248046875,27.41220870201704,79.54101972525096,-67.83330397865036,2.3718000075380563,,,,3,0,3,3
1788945655.56384,743778374.0,-9.296875,0.73046875,1.5390625,-0.01953125,-0.021484375,-0.03125,24.4375,-3.3125,-30.1875,24.4375,-3.3125,-30.1875,-0.007925853848963684,-0.6464093939713395,0.04673103155735142,0.761517095616347,26.978673212574034,79.66091657873478,-156.17889243619956,0.53497314453125,0.49798583984375,0.41412353515625,-0.54248046875,27.41220870201704,79.54101972525096,-67.83330397865036,2.343787519400721,,,,3,0,3,3
1788945655.5706108,743781180.0,-9.296875,0.73046875,1.5390625,-0.01953125,-0.021484375,-0.02734375,24.4375,-3.3125,-30.1875,24.4375,-3.3125,-30.1875,-0.007885141634343949,-0.6463690731106012,0.04655807199076782,0.7615623361222974,26.86998758913828,79.66206807457348,-156.2768115605641,0.5350341796875,0.497802734375,0.41424560546875,-0.54254150390625,27.299374885882155,79.55468891498026,-67.9504685653354,2.1986822092198546,,,,3,0,3,3
1788945655.5775738,743785339.0,-9.296875,0.69140625,1.578125,-0.01953125,-0.02734375,-0.01953125,24.0625,-4.8125,-31.125,24.0625,-4.8125,-31.125,-0.007824541106023323,-0.6462810109732001,0.046691757743261474,0.7616295104384961,26.87779646049182,79.6481083534018,-156.28485056762813,0.5350341796875,0.497802734375,0.41424560546875,-0.54254150390625,27.299374885882155,79.55468891498026,-67.9504685653354,2.204897208899453,,,,3,0,3,3
1788945655.5816343,743793599.0,-9.3359375,0.65625,1.578125,-0.021484375,-0.02734375,-0.015625,24.0625,-4.8125,-31.125,24.0625,-4.8125,-31.125,-0.0076608507767579785,-0.6461109081198068,0.046942062334399196,0.7617600990848551,26.872196449072224,79.62297770692813,-156.32420986103207,0.53509521484375,0.49761962890625,0.414306640625,-0.54254150390625,27.20475399868555,79.52855426459065,-67.99868761218542,2.412502682614093,,,,3,0,3,3
1788945655.5880504,743797005.0,-9.3359375,0.6171875,1.578125,-0.01953125,-0.02734375,-0.01171875,24.0625,-4.8125,-31.125,24.0625,-4.8125,-31.125,-0.00756709877101041,-0.646041368802243,0.04703473802076342,0.7618142964211372,26.85571236814862,79.61391039182763,-156.35589106568136,0.53509521484375,0.49761962890625,0.414306640625,-0.54254150390625,27.20475399868555,79.52855426459065,-67.99868761218542,2.4130370911965806,,,,3,0,3,3
1788945655.5920641,743800711.0,-9.375,0.578125,1.578125,-0.03125,-0.025390625,0.005859375,24.0625,-4.8125,-31.125,24.0625,-4.8125,-31.125,-0.007472670199808872,-0.6459730438764135,0.0471135859468178,0.7618682929511884,26.83313567592087,79.60544823969708,-156.39259318177824,0.5352783203125,0.4974365234375,0.41436767578125,-0.54254150390625,27.144372602474505,79.53435038161615,-68.06247058916517,2.2359410066507133,,,,3,0,3,3
1788945655.5965824,743804894.0,-9.375,0.578125,1.5390625,-0.025390625,-0.029296875,0.013671875,27.875,-1.875,-35.0,27.875,-1.875,-35.0,-0.007489991197944334,-0.6459356505315914,0.04688711719416664,0.7619137967286096,26.72277907225512,79.60658128964222,-156.48310362878217,0.5352783203125,0.4974365234375,0.41436767578125,-0.54254150390625,27.144372602474505,79.53435038161615,-68.06247058916517,2.216837053875308,,,,3,0,2,3
1788945655.6021373,743809377.0,-9.4140625,0.5390625,1.5390625,-0.02734375,-0.037109375,0.015625,27.875,-1.875,-35.0,27.875,-1.875,-35.0,-0.007507329166710141,-0.6458838131309488,0.04664511657937288,0.7619724227578744,26.60026717420063,79.60618355831305,-156.58450778660895,0.53546142578125,0.49725341796875,0.41436767578125,-0.54248046875,27.102338733649265,79.50045272579975,-68.05732204467212,2.3455176176191594,,,,3,0,2,3
1788945655.5992022,743813660.0,-9.453125,0.5,1.5390625,-0.025390625,-0.0390625,0.03125,27.875,-1.875,-35.0,27.875,-1.875,-35.0,-0.00754082088804517,-0.6458312333305694,0.046439906341589114,0.7620291918122523,26.500292074290915,79.6040141301327,-156.6650593911046,0.53546142578125,0.49725341796875,0.41436767578125,-0.54248046875,27.102338733649265,79.50045272579975,-68.05732204467212,2.3306680066533207,,,,3,0,2,3
1788945655.6031373,743817113.0,-9.45703125,0.46484375,1.5390625,-0.025390625,-0.0390625,0.03125,27.5625,-4.3125,-35.3125,27.5625,-4.3125,-35.3125,-0.007484592316657972,-0.6457908444931248,0.046321155954882405,0.7620712017637942,26.41125922642344,79.60392028355204,-156.7490035695235,0.53546142578125,0.49725341796875,0.41436767578125,-0.54248046875,27.102338733649265,79.50045272579975,-68.05732204467212,2.316529614988294,,,,3,0,2,3
1788945655.6136255,743820519.0,-9.4921875,0.5,1.5390625,-0.0234375,-0.04296875,0.033203125,27.5625,-4.3125,-35.3125,27.5625,-4.3125,-35.3125,-0.00742740909192855,-0.6457502112979052,0.04621183957730933,0.7621128289733569,26.326120749983712,79.6035241124499,-156.82989971385223,0.53570556640625,0.49713134765625,0.41424560546875,-0.54248046875,27.106997842221325,79.48132154328171,-68.05559421171621,2.1757952133364724,,,,3,0,2,3
1788945655.6168997,743824802.0,-9.5234375,0.46484375,1.578125,-0.009765625,-0.04296875,0.041015625,27.5625,-4.3125,-35.3125,27.5625,-4.3125,-35.3125,-0.0073502692438166635,-0.6456783331832907,0.04610457046664969,0.762180970755487,26.223839682600797,79.59944290393341,-156.92973866434232,0.53570556640625,0.49713134765625,0.41424560546875,-0.54248046875,27.106997842221325,79.48132154328171,-68.05559421171621,2.1601682374432736,,,,3,0,2,3
1788945655.6193366,743832861.0,-9.5625,0.5,1.5390625,0.0,-0.048828125,0.046875,28.1875,-2.9375,-35.4375,28.1875,-2.9375,-35.4375,-0.007348356035341928,-0.6455608460504662,0.04585136771945429,0.7622957744789352,26.06679740980671,79.59088681274709,-157.0663487857057,0.53594970703125,0.4970703125,0.4140625,-0.54241943359375,27.16523477626073,79.44344395513431,-67.97965569734426,2.1650034309804056,,,,3,0,2,3
1788945655.6193366,743836144.0,-9.6015625,0.5390625,1.5390625,0.00390625,-0.044921875,0.056640625,27.25,-3.3125,-35.25,27.25,-3.3125,-35.25,-0.007348001026747445,-0.6455229796326709,0.04576788724093097,0.762332860464883,26.015476360579164,79.58816256083327,-157.11091067038078,0.53594970703125,0.4970703125,0.4140625,-0.54241943359375,27.16523477626073,79.44344395513431,-67.97965569734426,2.1577284343169576,,,,3,0,2,3
1788945655.6193366,743840427.0,-9.6015625,0.6171875,1.5390625,0.021484375,-0.048828125,0.060546875,27.25,-3.3125,-35.25,27.25,-3.3125,-35.25,-0.007345019592322613,-0.6454724865176135,0.04568879996145437,0.7623803862862946,25.960932699585832,79.58366247695072,-157.15927091680524,0.5361328125,0.4970703125,0.41375732421875,-0.54241943359375,27.23561669184722,79.38866883408845,-67.89231613241618,2.2898809134210594,,,,3,0,2,3
1788945655.6345205,743843933.0,-9.60546875,0.69140625,1.4609375,0.021484375,-0.0546875,0.0625,27.25,-3.3125,-35.25,27.25,-3.3125,-35.25,-0.007370491936965581,-0.6454614675469055,0.04565273288503566,0.7623916301619068,25.950019764447582,79.58236888106528,-157.16517808755458,0.5361328125,0.4970703125,0.41375732421875,-0.54241943359375,27.23561669184722,79.38866883408845,-67.89231613241618,2.288811939978883,,,,3,0,2,3
1788945655.6364737,743852193.0,-9.5625,0.80859375,1.5390625,0.021484375,-0.060546875,0.060546875,24.375,-3.8125,-30.625,24.375,-3.8125,-30.625,-0.007577104219124438,-0.6453603856561101,0.04622022892560044,0.762440981686789,26.250628598158517,79.54507869734924,-156.89403680419608,0.536376953125,0.49713134765625,0.4134521484375,-0.54241943359375,27.35763932559458,79.37028501516149,-67.80755137639447,2.1076863784829896,,,,3,0,3,3
1788945655.6364737,743855975.0,-9.5625,0.8828125,1.578125,0.033203125,-0.060546875,0.0546875,23.9375,-4.0625,-29.375,23.9375,-4.0625,-29.375,-0.007662279902794556,-0.6452642682936445,0.046516625161624886,0.7625034538372478,26.383697256396964,79.52036532916401,-156.77822349149258,0.536376953125,0.49713134765625,0.4134521484375,-0.54241943359375,27.35763932559458,79.37028501516149,-67.80755137639447,2.1398468140761935,,,,3,0,3,3
1788945655.6519616,743859582.0,-9.5234375,0.921875,1.578125,0.0390625,-0.060546875,0.044921875,23.9375,-4.0625,-29.375,23.9375,-4.0625,-29.375,-0.007734650640560006,-0.6451704924357524,0.0467926335389398,0.7625651843063435,26.503122809588206,79.49696769282244,-156.67543356977777,0.53662109375,0.4970703125,0.41314697265625,-0.54241943359375,27.40830891772811,79.31085529322033,-67.73534279849954,2.2921907512416815,,,,3,0,3,3
1788945655.6547768,743867441.0,-9.4140625,1.0,1.61328125,0.041015625,-0.05859375,0.041015625,24.0,-5.0,-29.4375,24.0,-5.0,-29.4375,-0.007840848858667683,-0.6449483114241501,0.0473993937225161,0.7627145561447289,26.739436061404717,79.44503321105991,-156.48000140732222,0.53662109375,0.4970703125,0.41314697265625,-0.54241943359375,27.40830891772811,79.31085529322033,-67.73534279849954,2.34941255481556,,,,3,0,3,3
1788945655.6634245,743871924.0,-9.4140625,1.0,1.61328125,0.04296875,-0.0546875,0.033203125,24.0,-5.0,-29.4375,24.0,-5.0,-29.4375,-0.00788507407051744,-0.6448297805451122,0.047737761306180994,0.7627932130495912,26.86682777419476,79.4172631254077,-156.3766273040856,0.53680419921875,0.4970703125,0.41278076171875,-0.54248046875,27.467159706005056,79.25502872522999,-67.67396655566097,2.4612164960289635,,,,3,0,3,3
1788945655.6674385,743875307.0,-9.453125,1.0390625,1.61328125,0.0390625,-0.0546875,0.029296875,24.5625,-4.625,-29.6875,24.5625,-4.625,-29.6875,-0.007934266262574492,-0.6447399851437015,0.04797849173203283,0.762853500553608,26.961562385267545,79.39614211755726,-156.2975411432488,0.53680419921875,0.4970703125,0.41278076171875,-0.54248046875,27.467159706005056,79.25502872522999,-67.67396655566097,2.4836521010880728,,,,3,0,3,3
1788945655.6727998,743879889.0,-9.4140625,1.0390625,1.61328125,0.0234375,-0.0546875,0.017578125,24.5625,-4.625,-29.6875,24.5625,-4.625,-29.6875,-0.008004226382485713,-0.6446172508377395,0.04825924876087163,0.7629387768303884,27.069884256173207,79.36861484058458,-156.20645334457316,0.53692626953125,0.4970703125,0.41253662109375,-0.5426025390625,27.487882191594988,79.24273082723468,-67.69380640135891,2.32824118420975,,,,3,0,3,3
1788945655.6708467,743883972.0,-9.375,1.078125,1.61328125,0.015625,-0.044921875,0.0078125,24.5625,-4.625,-29.6875,24.5625,-4.625,-29.6875,-0.008068579647690815,-0.6445233535518805,0.04848173651377921,0.7630033197655925,27.159710286089883,79.34693497938967,-156.12955931240464,0.53692626953125,0.4970703125,0.41253662109375,-0.5426025390625,27.487882191594988,79.24273082723468,-67.69380640135891,2.3519162672138827,,,,3,0,3,3
1788945655.6727998,743887625.0,-9.4140625,1.078125,1.61328125,0.015625,-0.044921875,0.0078125,23.8125,-5.6875,-30.5625,23.8125,-5.6875,-30.5625,-0.008097728527985081,-0.6444473222472915,0.04869095308286363,0.7630539081407451,27.23702844257376,79.32927181052231,-156.06694864349157,0.53692626953125,0.4970703125,0.41253662109375,-0.5426025390625,27.487882191594988,79.24273082723468,-67.69380640135891,2.3721262120185314,,,,3,0,3,3
1788945655.6816626,743893008.0,-9.4140625,1.078125,1.61328125,0.005859375,-0.041015625,0.005859375,23.8125,-5.6875,-30.5625,23.8125,-5.6875,-30.5625,-0.008153894113252878,-0.6443436163201107,0.048975782457379324,0.7631226578021382,27.34769293140692,79.30461225998906,-155.9749677070678,0.53704833984375,0.4969482421875,0.41241455078125,-0.54266357421875,27.444739108046118,79.21140127949221,-67.72313147423661,2.464618737430765,,,,3,0,3,3
1788945655.6877017,743895314.0,-9.453125,1.0390625,1.61328125,0.00390625,-0.041015625,-0.001953125,23.8125,-5.6875,-30.5625,23.8125,-5.6875,-30.5625,-0.00816886595978241,-0.6443005838553699,0.04909106823134204,0.7631514229119056,27.389255493514252,79.29474943417198,-155.9415992592441,0.53704833984375,0.4969482421875,0.41241455078125,-0.54266357421875,27.444739108046118,79.21140127949221,-67.72313147423661,2.4754630648517653,,,,3,0,3,3
1788945655.6926632,743899021.0,-9.4140625,1.0390625,1.61328125,-0.0078125,-0.03125,-0.013671875,23.8125,-5.6875,-30.5625,23.8125,-5.6875,-30.5625,-0.008191728490647768,-0.6442448006811226,0.04924554840865516,0.7631883177444523,27.44648605313806,79.28168569975638,-155.89512044989658,0.53717041015625,0.496826171875,0.412353515625,-0.54278564453125,27.38430511383259,79.21872658544,-67.81894802017491,2.2391957483960083,,,,3,0,3,3
1788945655.696694,743903504.0,-9.375,1.0390625,1.61328125,-0.009765625,-0.02734375,-0.021484375,23.8125,-5.6875,-30.5625,23.8125,-5.6875,-30.5625,-0.008209798013337289,-0.6441832943895098,0.04941749028629389,0.7632289264040394,27.507657298357927,79.26747253051154,-155.8465163960263,0.53717041015625,0.496826171875,0.412353515625,-0.54278564453125,27.38430511383259,79.21872658544,-67.81894802017491,2.2569749049866594,,,,3,0,3,3
1788945655.700629,743906957.0,-9.3359375,1.0390625,1.65234375,-0.009765625,-0.02734375,-0.021484375,27.25,-3.25,-34.9375,27.25,-3.25,-34.9375,-0.008312479847717495,-0.6441000380329506,0.049321617210495605,0.7633042786205735,27.47233755925549,79.25561115052292,-155.8657023029188,0.53717041015625,0.496826171875,0.412353515625,-0.54278564453125,27.38430511383259,79.21872658544,-67.81894802017491,2.255083710302519,,,,3,0,2,3
1788945655.703629,743911339.0,-9.3359375,1.0,1.61328125,-0.009765625,-0.0234375,-0.03125,27.25,-3.25,-34.9375,27.25,-3.25,-34.9375,-0.00842808446677271,-0.644029374399826,0.049139220649625254,0.7633743965423108,27.40771698785307,79.24765752417363,-155.90608118813648,0.5372314453125,0.49664306640625,0.412353515625,-0.5428466796875,27.282571790898583,79.19186303869066,-67.8890891461772,2.399487255802976,,,,3,0,2,3
1788945655.7066708,743914846.0,-9.3359375,1.0,1.61328125,-0.01953125,-0.01953125,-0.037109375,27.25,-3.25,-34.9375,27.25,-3.25,-34.9375,-0.008527163976752853,-0.6439792077334014,0.0489761665352688,0.7634260950433145,27.353021025340134,79.24244926579772,-155.93944823984177,0.5372314453125,0.49664306640625,0.412353515625,-0.5428466796875,27.282571790898583,79.19186303869066,-67.8890891461772,2.3917203920084513,,,,3,0,2,3
1788945655.7186677,743922205.0,-9.3359375,0.8828125,1.61328125,-0.0234375,-0.01171875,-0.037109375,27.1875,-5.1875,-38.125,27.1875,-5.1875,-38.125,-0.008540347042838929,-0.643882365561265,0.049173719191107114,0.7634949293430386,27.411466428310597,79.22285594908391,-155.8960676289051,0.53717041015625,0.4964599609375,0.4124755859375,-0.54296875,27.12651747455299,79.19284652097572,-68.03212703000254,2.4767546604286452,,,,3,0,2,3
1788945655.7186677,743926764.0,-9.3359375,0.8828125,1.61328125,-0.01953125,-0.01171875,-0.041015625,28.0625,-4.5,-36.625,28.0625,-4.5,-36.625,-0.008617107943398091,-0.643780542838132,0.049207696255874345,0.7635777371970202,27.418147822884485,79.20540538551867,-155.8859502010484,0.53717041015625,0.4964599609375,0.4124755859375,-0.54296875,27.12651747455299,79.19284652097572,-68.03212703000254,2.485000765897583,,,,3,0,2,3
1788945655.7147326,743934024.0,-9.33984375,0.84765625,1.61328125,-0.025390625,-0.001953125,-0.041015625,28.0625,-4.5,-36.625,28.0625,-4.5,-36.625,-0.008690342109502893,-0.6436011975351122,0.0491536445023204,0.7637315599852665,27.35818750399778,79.18030117651644,-155.9356147855675,0.53717041015625,0.496337890625,0.41265869140625,-0.54302978515625,27.03123589922741,79.23103166408966,-68.15374821151671,2.241869495953982,,,,3,0,2,3
1788945655.7186677,743934877.0,-9.37890625,0.84765625,1.61328125,-0.03125,-0.00390625,-0.041015625,28.0625,-4.5,-36.625,28.0625,-4.5,-36.625,-0.008703606789272664,-0.6435809218534685,0.049149350861308144,0.7637487712363337,27.3539625195924,79.17723536676314,-155.93841843558184,0.53717041015625,0.496337890625,0.41265869140625,-0.54302978515625,27.03123589922741,79.23103166408966,-68.15374821151671,2.2425000306149974,,,,3,0,2,3
1788945655.7186677,743938530.0,-9.375,0.80859375,1.61328125,-0.03125,-0.00390625,-0.041015625,28.0625,-4.5,-36.625,28.0625,-4.5,-36.625,-0.008633218505903841,-0.6434973395549659,0.048979871419994464,0.7638308803129075,27.22625006069932,79.17352785675493,-156.05807249392424,0.53717041015625,0.496337890625,0.41265869140625,-0.54302978515625,27.03123589922741,79.23103166408966,-68.15374821151671,2.220252682889619,,,,3,0,2,3
1788945655.7186677,743942313.0,-9.375,0.76953125,1.61328125,-0.03125,-0.00390625,-0.0390625,28.0625,-4.5,-36.625,28.0625,-4.5,-36.625,-0.008506183713541088,-0.6434548717471239,0.04875881584603075,0.7638822230820774,27.070110088817238,79.17883732644319,-156.20654245342524,0.537109375,0.49615478515625,0.41278076171875,-0.5430908203125,26.88861929493245,79.2134015057378,-68.25204403586973,2.442418292471279,,,,3,0,2,3
1788945655.7343798,743946096.0,-9.453125,0.76953125,1.578125,-0.033203125,-0.00390625,-0.037109375,24.8125,-3.75,-29.875,24.8125,-3.75,-29.875,-0.00840517578174208,-0.6435189673367713,0.04853816242592374,0.7638433991900488,26.95920567770953,79.19762643613623,-156.30765411211638,0.537109375,0.49615478515625,0.41278076171875,-0.5430908203125,26.88861929493245,79.2134015057378,-68.25204403586973,2.4152089587745205,,,,3,0,3,3
1788945655.737748,743953755.0,-9.45703125,0.73046875,1.578125,-0.029296875,-0.013671875,-0.033203125,24.8125,-3.75,-29.875,24.8125,-3.75,-29.875,-0.00816296066481067,-0.6435868861167545,0.04809745869691839,0.7638166799426567,26.70211703195384,79.22826262226963,-156.54849919315367,0.537109375,0.49591064453125,0.41302490234375,-0.54315185546875,26.719391686787535,79.23105451070059,-68.40742114832423,2.320677679397889,,,,3,0,3,3
1788945655.73973,743953908.0,-9.49609375,0.73046875,1.578125,-0.025390625,-0.005859375,-0.029296875,24.8125,-3.75,-29.875,24.8125,-3.75,-29.875,-0.008158167240086028,-0.6435891449665166,0.04808974211910538,0.7638153137319706,26.697769240942215,79.22896134859901,-156.55260711048408,0.537109375,0.49591064453125,0.41302490234375,-0.54315185546875,26.719391686787535,79.23105451070059,-68.40742114832423,2.319605062626037,,,,3,0,3,3
1788945655.741683,743957861.0,-9.453125,0.65625,1.578125,-0.025390625,-0.005859375,-0.029296875,24.8125,-3.75,-29.875,24.8125,-3.75,-29.875,-0.00802045277269387,-0.6436189068970222,0.04787050168387002,0.7638054661303086,26.561924598511446,79.2441635138945,-156.6817733242756,0.537109375,0.49591064453125,0.41302490234375,-0.54315185546875,26.719391686787535,79.23105451070059,-68.40742114832423,2.289032301605925,,,,3,0,3,3
1788945655.75201,743962244.0,-9.4921875,0.65625,1.5390625,-0.025390625,-0.017578125,-0.025390625,24.8125,-3.75,-29.875,24.8125,-3.75,-29.875,-0.00789094743200949,-0.6436690620159159,0.04766257010366238,0.763777553325109,26.44048721565318,79.26148194827742,-156.79677926659295,0.53717041015625,0.49578857421875,0.41314697265625,-0.54315185546875,26.658166993286706,79.24607738957,-68.47011445327546,2.1380889616860395,,,,3,0,3,3
1788945655.7579346,743965827.0,-9.453125,0.65625,1.578125,-0.01953125,-0.017578125,-0.0234375,24.9375,-3.125,-29.125,24.9375,-3.125,-29.125,-0.007816519984263854,-0.6436690708731654,0.047443344035179726,0.7637919601065274,26.316469915407943,79.27042834549815,-156.9089836987003,0.53717041015625,0.49578857421875,0.41314697265625,-0.54315185546875,26.658166993286706,79.24607738957,-68.47011445327546,2.1104653437068115,,,,3,0,3,3
1788945655.761016,743969810.0,-9.4921875,0.6171875,1.578125,-0.013671875,-0.029296875,-0.017578125,24.9375,-3.125,-29.125,24.9375,-3.125,-29.125,-0.007725485909321534,-0.6436525183937671,0.04722028011851488,0.763820657993979,26.179151232859226,79.27773754369127,-157.035533639151,0.5372314453125,0.49554443359375,0.41326904296875,-0.54315185546875,26.527774684380613,79.220431433839,-68.54416783702386,2.327120455461484,,,,3,0,3,3
1788945655.7621975,743973316.0,-9.4921875,0.578125,1.61328125,-0.005859375,-0.025390625,-0.015625,24.9375,-3.125,-29.125,24.9375,-3.125,-29.125,-0.007633650315887349,-0.6436277861140227,0.047037425998566224,0.7638537038466503,26.056642062748097,79.28273417148527,-157.15061928060956,0.5372314453125,0.49554443359375,0.41326904296875,-0.54315185546875,26.527774684380613,79.220431433839,-68.54416783702386,2.3041290805801116,,,,3,0,3,3
1788945655.7661326,743977069.0,-9.453125,0.578125,1.65234375,-0.005859375,-0.025390625,-0.015625,23.1875,-6.125,-30.6875,23.1875,-6.125,-30.6875,-0.007552102041882304,-0.6435806061282942,0.04718648292302067,0.7638850731619529,26.078584678615155,79.2746403553062,-157.14747305533868,0.5372314453125,0.49554443359375,0.41326904296875,-0.54315185546875,26.527774684380613,79.220431433839,-68.54416783702386,2.3118964740520656,,,,3,0,3,3
1788945655.773097,743982752.0,-9.453125,0.578125,1.61328125,0.0,-0.02734375,-0.0078125,23.1875,-6.125,-30.6875,23.1875,-6.125,-30.6875,-0.007434137248813149,-0.6435214202130869,0.04743795244042141,0.7639205168069239,26.129289249864993,79.26312852783227,-157.12687754044006,0.53729248046875,0.49542236328125,0.41326904296875,-0.543212890625,26.461508621803564,79.21379155834579,-68.60802701769788,2.303466341641655,,,,3,0,3,3
1788945655.774853,743989111.0,-9.375,0.578125,1.61328125,0.005859375,-0.021484375,-0.00390625,23.1875,-6.125,-30.6875,23.1875,-6.125,-30.6875,-0.007300647596169059,-0.643462754616763,0.04774229269896795,0.7639522612398828,26.198156133687263,79.25066222851696,-157.09369187263093,0.53729248046875,0.49542236328125,0.41326904296875,-0.543212890625,26.461508621803564,79.21379155834579,-68.60802701769788,2.322758213163142,,,,3,0,3,3
1788945655.7830155,743989464.0,-9.375,0.6171875,1.65234375,0.0078125,-0.01953125,0.00390625,23.1875,-6.125,-30.6875,23.1875,-6.125,-30.6875,-0.00729508067902435,-0.643458622285527,0.047760663160654214,0.7639546467289485,26.202997300854125,79.2497467169972,-157.09080216098457,0.537353515625,0.49530029296875,0.41326904296875,-0.54327392578125,26.395357563097498,79.20714660078087,-68.67177728865977,2.3009788662574535,,,,3,0,3,3
1788945655.7810624,743993294.0,-9.375,0.65625,1.65234375,0.0078125,-0.01953125,0.00390625,23.1875,-6.125,-30.6875,23.1875,-6.125,-30.6875,-0.007246311237775863,-0.6434138149754804,0.0479630728688016,0.7639801681412455,26.260988605565405,79.23934026311368,-157.0532902507927,0.537353515625,0.49530029296875,0.41326904296875,-0.54327392578125,26.395357563097498,79.20714660078087,-68.67177728865977,2.3170107597828817,,,,3,0,3,3
1788945655.7830155,743997377.0,-9.3359375,0.65625,1.65234375,0.013671875,-0.013671875,0.005859375,23.9375,-3.5625,-29.3125,23.9375,-3.5625,-29.3125,-0.007136433537655617,-0.6433443244499859,0.04784764905957991,0.764046957976946,26.147767388892362,79.2368691294003,-157.16606663024723,0.537353515625,0.49530029296875,0.41326904296875,-0.54327392578125,26.395357563097498,79.20714660078087,-68.67177728865977,2.2984810093753176,,,,3,0,3,3
1788945655.7785883,744003360.0,-9.296875,0.73046875,1.65234375,0.013671875,-0.0078125,0.009765625,23.9375,-3.5625,-29.3125,23.9375,-3.5625,-29.3125,-0.007049960192964178,-0.643200534873258,0.04774801008497116,0.7641750437779016,26.0255578704704,79.22298755510543,-157.28724202641365,0.53741455078125,0.49530029296875,0.41314697265625,-0.54327392578125,26.420794175835134,79.18246522575042,-68.635166278717,2.3713933145355908,,,,3,0,3,3
1788945655.798073,744004613.0,-9.33984375,0.73046875,1.65234375,0.013671875,0.0,0.0078125,23.9375,-3.5625,-29.3125,23.9375,-3.5625,-29.3125,-0.007028381489826196,-0.6431760854035051,0.047723164839782055,0.764197372775078,25.998861203994636,79.22107738363137,-157.3136779343646,0.53741455078125,0.49530029296875,0.41314697265625,-0.54327392578125,26.420794175835134,79.18246522575042,-68.635166278717,2.3677362530996886,,,,3,0,3,3
1788945655.7994118,744008872.0,-9.3359375,0.80859375,1.65234375,0.017578125,0.015625,0.009765625,23.9375,-3.5625,-29.3125,23.9375,-3.5625,-29.3125,-0.0070737864150708955,-0.6430883764165862,0.04778073747223408,0.7642671671544202,26.011826111901215,79.2059431005059,-157.30174507634501,0.53741455078125,0.495361328125,0.41314697265625,-0.54327392578125,26.455192283968124,79.20272950821337,-68.62955204266984,2.1987749724959413,,,,3,0,3,3
1788945655.7974586,744012625.0,-9.37890625,0.84765625,1.65234375,0.017578125,0.015625,0.009765625,23.9375,-3.5625,-29.3125,23.9375,-3.5625,-29.3125,-0.007161770911731806,-0.6430272849557446,0.04788828234246469,0.7643110180117384,26.070651546887408,79.19159361307234,-157.24455156965618,0.53741455078125,0.495361328125,0.41314697265625,-0.54327392578125,26.455192283968124,79.20272950821337,-68.62955204266984,2.215792836314845,,,,3,0,3,3
1788945655.7994118,744016608.0,-9.3359375,0.8828125,1.61328125,0.015625,0.01953125,0.0078125,26.4375,-3.4375,-36.375,26.4375,-3.4375,-36.375,-0.007274042184229107,-0.6430473802099259,0.04776891111274491,0.7643005208990478,26.063876161182232,79.19409973347844,-157.2324588468142,0.53741455078125,0.495361328125,0.41314697265625,-0.54327392578125,26.455192283968124,79.20272950821337,-68.62955204266984,2.211863003685512,,,,3,0,2,3
1788945655.8127213,744024068.0,-9.37890625,0.84765625,1.61328125,0.005859375,0.017578125,0.01171875,26.4375,-3.4375,-36.375,26.4375,-3.4375,-36.375,-0.007436092360120773,-0.6430986307737754,0.047472597614606545,0.7642743016110307,26.006339783390402,79.20435560819055,-157.25264612346206,0.537353515625,0.4954833984375,0.41314697265625,-0.543212890625,26.52133103975024,79.2093740580689,-68.565834689369,2.219033816088113,,,,3,0,2,3
1788945655.8167143,744024921.0,-9.37890625,0.84765625,1.61328125,-0.001953125,0.021484375,0.009765625,26.4375,-3.4375,-36.375,26.4375,-3.4375,-36.375,-0.007457360979732715,-0.6431054774323286,0.04743618640234629,0.7642705940197859,25.999925240053386,79.20564667987058,-157.25436077903072,0.537353515625,0.4954833984375,0.41314697265625,-0.543212890625,26.52133103975024,79.2093740580689,-68.565834689369,2.2170473308820897,,,,3,0,2,3
1788945655.8167143,744028374.0,-9.4140625,0.8828125,1.61328125,-0.001953125,0.021484375,0.009765625,26.4375,-3.4375,-36.375,26.4375,-3.4375,-36.375,-0.007580419516293374,-0.6431375004365816,0.0473100077934511,0.7642502573991891,25.997859026130214,79.20963308591598,-157.2361229943589,0.537353515625,0.4954833984375,0.41314697265625,-0.543212890625,26.52133103975024,79.2093740580689,-68.565834689369,2.2137940516932275,,,,3,0,2,3
1788945655.8147612,744031680.0,-9.41796875,0.84765625,1.578125,-0.001953125,0.0234375,0.009765625,26.4375,-3.4375,-36.375,26.4375,-3.4375,-36.375,-0.007659759792595052,-0.6432052370376515,0.047173892533605044,0.7642008734557205,25.987622520740064,79.22022277869726,-157.22878876878113,0.537353515625,0.49554443359375,0.4132080078125,-0.5430908203125,26.57909117257786,79.2127172365897,-68.49192404176935,2.264366537681452,,,,3,0,2,3
1788945655.8167143,744035939.0,-9.45703125,0.84765625,1.5390625,-0.01171875,0.0234375,0.0078125,27.6875,-6.0,-37.1875,27.6875,-6.0,-37.1875,-0.007699671545704093,-0.6432677079310952,0.04736588942672958,0.7641360111328206,26.10760471819803,79.22184977940331,-157.1211850959291,0.537353515625,0.49554443359375,0.4132080078125,-0.5430908203125,26.57909117257786,79.2127172365897,-68.49192404176935,2.2847454553297317,,,,3,0,2,3
1788945655.8300095,744039646.0,-9.4921875,0.80859375,1.578125,-0.001953125,0.017578125,0.005859375,27.6875,-6.0,-37.1875,27.6875,-6.0,-37.1875,-0.007705813046443731,-0.6433047241544543,0.0475493288251534,0.7640933932799916,26.203482392333314,79.2213379567553,-157.03974450347272,0.537353515625,0.49560546875,0.41326904296875,-0.54302978515625,26.623141567227368,79.23459402926206,-68.46306122115186,2.1683505331669846,,,,3,0,2,3
1788945655.835364,744043829.0,-9.5234375,0.84765625,1.5,-0.001953125,0.017578125,0.009765625,27.6875,-6.0,-37.1875,27.6875,-6.0,-37.1875,-0.007730460923057238,-0.6433733759293313,0.04774374157605575,0.764023215785706,26.321259688900728,79.2241760068079,-156.9357820207894,0.537353515625,0.49560546875,0.41326904296875,-0.54302978515625,26.623141567227368,79.23459402926206,-68.46306122115186,2.189184474414593,,,,3,0,2,3
1788945655.8438108,744049088.0,-9.52734375,0.8828125,1.5,0.0,0.01171875,0.009765625,24.125,-3.3125,-30.25,24.125,-3.3125,-30.25,-0.007829260402207284,-0.643536087841696,0.047720218540064516,0.7638866323411139,26.39986186220283,79.2437366650174,-156.84716800300373,0.537353515625,0.49560546875,0.413330078125,-0.54296875,26.632664335079777,79.23615735899527,-68.4398430896313,2.2419470205524688,,,,3,0,3,3
1788945655.8438108,744053594.0,-9.52734375,0.8828125,1.5,0.00390625,0.0,0.005859375,24.125,-3.3125,-30.25,24.125,-3.3125,-30.25,-0.007901779125362747,-0.6436555381893717,0.04769992127520506,0.763786506528587,26.45641547573025,79.25817507978181,-156.78301896114513,0.537353515625,0.49560546875,0.413330078125,-0.54296875,26.632664335079777,79.23615735899527,-68.4398430896313,2.2451731042670344,,,,3,0,3,3
1788945655.8519063,744063360.0,-9.4921875,0.8828125,1.5390625,0.009765625,0.0,-0.0078125,23.4375,-6.1875,-31.0,23.4375,-6.1875,-31.0,-0.007854701982140305,-0.6436883226007972,0.04818725313630896,0.7637287709909331,26.66742265571852,79.24975189378507,-156.6155453989548,0.53741455078125,0.49560546875,0.413330078125,-0.54290771484375,26.663061733224804,79.23307662549644,-68.4021398643194,2.2848908044582745,,,,3,0,3,3
1788945655.8558414,744067113.0,-9.5234375,0.921875,1.5,0.009765625,0.0,-0.0078125,24.1875,-3.6875,-30.0,24.1875,-3.6875,-30.0,-0.007900295463413785,-0.6437692244800439,0.04827368953307659,0.7636546482820737,26.749231088729815,79.25662807320306,-156.5370438342999,0.53741455078125,0.49560546875,0.413330078125,-0.54290771484375,26.663061733224804,79.23307662549644,-68.4021398643194,2.2966199115547785,,,,3,0,3,3
1788945655.8579974,744072596.0,-9.4921875,0.8828125,1.5390625,0.01171875,-0.01171875,-0.0078125,24.1875,-3.6875,-30.0,24.1875,-3.6875,-30.0,-0.007970077100687749,-0.6438609202138815,0.04840387844212872,0.7635683714272758,26.862790437526332,79.26281850828664,-156.4283860925511,0.53741455078125,0.49560546875,0.413330078125,-0.54290771484375,26.663061733224804,79.23307662549644,-68.4021398643194,2.31441307750758,,,,3,0,3,3
1788945655.8619325,744075279.0,-9.453125,0.8828125,1.578125,0.013671875,-0.013671875,-0.017578125,24.1875,-3.6875,-30.0,24.1875,-3.6875,-30.0,-0.008027542777122422,-0.6438722275240178,0.04848943701242969,0.7635528060837955,26.92490874997043,79.2598317485478,-156.36856314791254,0.53741455078125,0.49560546875,0.413330078125,-0.54290771484375,26.663061733224804,79.23307662549644,-68.4021398643194,2.3268399196859693,,,,3,0,3,3
1788945655.872996,744082861.0,-9.41796875,0.921875,1.61328125,0.009765625,-0.017578125,-0.013671875,24.1875,-3.6875,-30.0,24.1875,-3.6875,-30.0,-0.00821848977165714,-0.6437529150771779,0.04874097005053999,0.7636353570874265,27.06292740371409,79.22956809344676,-156.235559395325,0.53741455078125,0.49554443359375,0.41339111328125,-0.54296875,26.610342478801638,79.25143906672562,-68.47494662060771,2.215355458715444,,,,3,0,3,3
1788945655.8777437,744083468.0,-9.375,0.8828125,1.61328125,0.0078125,-0.017578125,-0.017578125,24.1875,-3.6875,-30.0,24.1875,-3.6875,-30.0,-0.008232963717454465,-0.6437396763474387,0.04875520094215524,0.7636454529332393,27.069788912563013,79.22685004947657,-156.2286854749116,0.53741455078125,0.49554443359375,0.41339111328125,-0.54296875,26.610342478801638,79.25143906672562,-68.47494662060771,2.217913412893563,,,,3,0,3,3
1788945655.8777437,744087421.0,-9.3359375,0.8828125,1.61328125,0.0078125,-0.017578125,-0.017578125,24.1875,-3.6875,-30.0,24.1875,-3.6875,-30.0,-0.008320027927092879,-0.6436465678133411,0.04884274682314832,0.7637173946952945,27.107254798791633,79.20861482067352,-156.19130835693957,0.53741455078125,0.49554443359375,0.41339111328125,-0.54296875,26.610342478801638,79.25143906672562,-68.47494662060771,2.2335190744528357,,,,3,0,3,3
1788945655.8811166,744094080.0,-9.296875,0.84765625,1.61328125,0.005859375,-0.017578125,-0.015625,24.1875,-3.6875,-30.0,24.1875,-3.6875,-30.0,-0.008415597905818,-0.6434446221553375,0.04888171767631325,0.7638840053360691,27.089122055960345,79.17682324027568,-156.20491910959652,0.53741455078125,0.49542236328125,0.41339111328125,-0.54302978515625,26.527381294294962,79.22931602045635,-68.53144237784723,2.4105011906716585,,,,3,0,3,3
1788945655.8846278,744095433.0,-9.33984375,0.84765625,1.61328125,0.005859375,-0.017578125,-0.01171875,24.1875,-3.6875,-30.0,24.1875,-3.6875,-30.0,-0.00844360642470944,-0.64340564307386,0.0488888836187033,0.7639160693621873,27.08881603599799,79.17037180780362,-156.20354559506873,0.53741455078125,0.49542236328125,0.41339111328125,-0.54302978515625,26.527381294294962,79.22931602045635,-68.53144237784723,2.413208568311149,,,,3,0,3,3
1788945655.8936555,744099016.0,-9.30078125,0.80859375,1.61328125,0.001953125,-0.009765625,-0.005859375,24.1875,-3.6875,-30.0,24.1875,-3.6875,-30.0,-0.00843085475036637,-0.6433127279821921,0.048800649029991185,0.7640000990566297,27.014030249151933,79.16088930059227,-156.27221096448295,0.53741455078125,0.495361328125,0.41339111328125,-0.5430908203125,26.47903212469705,79.22753212886239,-68.58223635049956,2.3950488746604335,,,,3,0,3,3
1788945655.8917024,744102669.0,-9.26171875,0.84765625,1.61328125,0.001953125,-0.009765625,-0.005859375,24.1875,-3.6875,-30.0,24.1875,-3.6875,-30.0,-0.008508922180360257,-0.6432145175772491,0.048837015467710014,0.7640795956845083,27.024028093000453,79.14382913169645,-156.25886400375325,0.53741455078125,0.495361328125,0.41339111328125,-0.5430908203125,26.47903212469705,79.22753212886239,-68.58223635049956,2.404360699644741,,,,3,0,3,3
1788945655.8936555,744106652.0,-9.2578125,0.76953125,1.65234375,-0.0078125,-0.013671875,-0.009765625,27.0625,-3.125,-34.25,27.0625,-3.125,-34.25,-0.00849197308779218,-0.6431681440177685,0.048629107224031895,0.7641320794498873,26.911091590270807,79.14438650906577,-156.3562498196108,0.53741455078125,0.495361328125,0.41339111328125,-0.5430908203125,26.47903212469705,79.22753212886239,-68.58223635049956,2.3830428241548414,,,,3,0,3,3
1788945655.9049542,744110435.0,-9.30078125,0.80859375,1.61328125,-0.009765625,-0.009765625,-0.0078125,27.0625,-3.125,-34.25,27.0625,-3.125,-34.25,-0.008498027011589677,-0.6431504257720627,0.04842061181659724,0.7641601649637536,26.815540510047207,79.14803872737845,-156.4343210897087,0.5374755859375,0.49530029296875,0.41339111328125,-0.5430908203125,26.461118931690116,79.22267986756087,-68.59528563727572,2.3498182669420116,,,,3,0,3,3
1788945655.9074166,744114141.0,-9.3359375,0.76953125,1.61328125,-0.01171875,-0.013671875,-0.00390625,27.0625,-3.125,-34.25,27.0625,-3.125,-34.25,-0.008493476773348748,-0.643132130565605,0.04821696911118422,0.764188489429262,26.71817999497186,79.15180439235301,-156.51546025570175,0.5374755859375,0.49530029296875,0.41339111328125,-0.5430908203125,26.461118931690116,79.22267986756087,-68.59528563727572,2.3296950446017046,,,,3,0,3,3
1788945655.9074166,744123377.0,-9.37890625,0.69140625,1.61328125,-0.015625,-0.0078125,-0.001953125,27.0,-6.5,-37.625,27.0,-6.5,-37.625,-0.008390387313488469,-0.6430911030020983,0.04859391226665446,0.7642002789392941,26.834308473922523,79.13844012727174,-156.4384550583784,0.53753662109375,0.49517822265625,0.4134521484375,-0.5430908203125,26.40436193015483,79.2176221136912,-68.63595965458896,2.3819114650362208,,,,3,0,2,3
1788945655.900342,744125983.0,-9.41796875,0.69140625,1.61328125,-0.013671875,-0.001953125,0.001953125,27.0,-6.5,-37.625,27.0,-6.5,-37.625,-0.008361249135849805,-0.6430871904303098,0.048704234618464216,0.7641968676640648,26.87133654971748,79.1355882867754,-156.41279062893943,0.53753662109375,0.49517822265625,0.4134521484375,-0.5430908203125,26.40436193015483,79.2176221136912,-68.63595965458896,2.3906836972343264,,,,3,0,2,3
1788945655.9093697,744130266.0,-9.453125,0.65625,1.61328125,-0.01171875,-0.00390625,0.00390625,27.0,-6.5,-37.625,27.0,-6.5,-37.625,-0.00829323638935845,-0.6430813425727264,0.04888248655626032,0.7641911485833417,26.9240074874701,79.13175119582519,-156.3801829741712,0.53753662109375,0.49517822265625,0.4134521484375,-0.5430908203125,26.40436193015483,79.2176221136912,-68.63595965458896,2.4034783416765335,,,,3,0,2,3
1788945655.9272192,744133672.0,-9.4921875,0.65625,1.61328125,-0.005859375,-0.00390625,0.005859375,27.0,-6.5,-37.625,27.0,-6.5,-37.625,-0.008233072538360814,-0.643079310027975,0.049032236350793866,0.7641839159056945,26.968156299039503,79.12901887102969,-156.353134610393,0.53753662109375,0.49517822265625,0.4134521484375,-0.5430908203125,26.40436193015483,79.2176221136912,-68.63595965458896,2.4141108466430476,,,,3,0,2,3
1788945655.9336476,744141732.0,-9.52734375,0.65625,1.578125,-0.009765625,-0.001953125,0.009765625,26.1875,-4.3125,-35.875,26.1875,-4.3125,-35.875,-0.00804527952067814,-0.6431743418819468,0.04874858252827815,0.7641240835909064,26.809848821137088,79.1567780299312,-156.5035599801927,0.53759765625,0.4951171875,0.4134521484375,-0.54302978515625,26.400328300266214,79.19429003244507,-68.60389847499492,2.534395949888478,,,,3,0,2,3
1788945655.934426,744145691.0,-9.5234375,0.69140625,1.5390625,-0.005859375,-0.009765625,0.013671875,23.8125,-6.125,-30.625,23.8125,-6.125,-30.625,-0.008031595916715931,-0.6431827495088497,0.048939337322021874,0.7641049570993164,26.891895798418524,79.15267179620186,-156.43817109697784,0.53759765625,0.4951171875,0.4134521484375,-0.54302978515625,26.400328300266214,79.19429003244507,-68.60389847499492,2.5513016874557835,,,,3,0,3,3
1788945655.9434967,744153374.0,-9.52734375,0.65625,1.578125,0.001953125,-0.013671875,0.015625,23.8125,-6.125,-30.625,23.8125,-6.125,-30.625,-0.00796465487485831,-0.643169593417436,0.04934049084489652,0.7640909332920782,27.040582930224218,79.14111395868414,-156.3276320815253,0.53765869140625,0.4951171875,0.4134521484375,-0.54296875,26.43069756238219,79.19124385446734,-68.56623562460105,2.5810194184102597,,,,3,0,3,3
1788945655.949159,744157557.0,-9.5234375,0.69140625,1.578125,0.005859375,-0.01953125,0.015625,23.8125,-6.125,-30.625,23.8125,-6.125,-30.625,-0.007931835263747033,-0.643151834743197,0.049568209756581945,0.764091484075916,27.12320297046913,79.13296507085379,-156.2662503671732,0.53765869140625,0.4951171875,0.4134521484375,-0.54296875,26.43069756238219,79.19124385446734,-68.56623562460105,2.6005705442287588,,,,3,0,3,3
1788945655.949159,744161263.0,-9.4921875,0.65625,1.578125,0.0078125,-0.021484375,0.017578125,23.8125,-6.125,-30.625,23.8125,-6.125,-30.625,-0.007891520407151268,-0.6431330265848646,0.049772022469882146,0.7640944835560016,27.192283849418267,79.1256420381729,-156.21706953856022,0.53778076171875,0.49505615234375,0.41339111328125,-0.54296875,26.433775547899412,79.18178061578247,-68.56471369328698,2.5602500280597567,,,,3,0,3,3
1788945655.9571366,744165346.0,-9.4921875,0.65625,1.61328125,0.013671875,-0.02734375,0.01953125,24.5,-2.3125,-29.8125,24.5,-2.3125,-29.8125,-0.007858990621323931,-0.6431026176525941,0.04962062871280034,0.7641302589486572,27.10426572888257,79.1272097702922,-156.29540406365177,0.53778076171875,0.49505615234375,0.41339111328125,-0.54296875,26.433775547899412,79.18178061578247,-68.56471369328698,2.543518319758097,,,,3,0,3,3
1788945655.9571366,744169729.0,-9.49609375,0.69140625,1.578125,0.017578125,-0.017578125,0.021484375,24.5,-2.3125,-29.8125,24.5,-2.3125,-29.8125,-0.007830207024370052,-0.6430986510564017,0.04946677980523808,0.7641438677128096,27.025360247864274,79.13228579301844,-156.3641111480808,0.53790283203125,0.49505615234375,0.41326904296875,-0.54296875,26.475560997647545,79.17250507191007,-68.53568301526178,2.4320582147835434,,,,3,0,3,3
1788945655.9571366,744173682.0,-9.4921875,0.76953125,1.578125,0.017578125,-0.017578125,0.021484375,24.5,-2.3125,-29.8125,24.5,-2.3125,-29.8125,-0.007822862939450814,-0.6430971886915422,0.04932600071570997,0.7641542739302446,26.96044673681562,79.13656497233966,-156.41814707823843,0.53790283203125,0.49505615234375,0.41326904296875,-0.54296875,26.475560997647545,79.17250507191007,-68.53568301526178,2.417446991591298,,,,3,0,3,3
1788945655.9571366,744177264.0,-9.45703125,0.73046875,1.578125,0.017578125,-0.02734375,0.03515625,24.5625,-4.625,-29.6875,24.5625,-4.625,-29.6875,-0.007780784453952395,-0.6430880916455315,0.04953735110719911,0.7641486875093562,27.03561060598889,79.13041783936633,-156.36363715925083,0.53790283203125,0.49505615234375,0.41326904296875,-0.54296875,26.475560997647545,79.17250507191007,-68.53568301526178,2.4359853094259147,,,,3,0,3,3
1788945655.9729636,744181247.0,-9.453125,0.76953125,1.61328125,0.025390625,-0.025390625,0.029296875,24.5625,-4.625,-29.6875,24.5625,-4.625,-29.6875,-0.007744173887264656,-0.6430464292096513,0.049805353041342114,0.7641666993921865,27.12647696247873,79.11795805047846,-156.29761098900633,0.53802490234375,0.49505615234375,0.4130859375,-0.54296875,26.521566693316956,79.14322270182745,-68.48495691332141,2.494913185831142,,,,3,0,3,3
1788945655.9777508,744185354.0,-9.41796875,0.84765625,1.61328125,0.03515625,-0.025390625,0.033203125,24.5625,-4.625,-29.6875,24.5625,-4.625,-29.6875,-0.007759727451382135,-0.6429957869136115,0.05010874739510163,0.7641893208333388,27.24770930989396,79.10141032703702,-156.1998655083605,0.53802490234375,0.49505615234375,0.4130859375,-0.54296875,26.521566693316956,79.14322270182745,-68.48495691332141,2.525994915338471,,,,3,0,3,3
1788945655.9824903,744192713.0,-9.3359375,0.8828125,1.61328125,0.025390625,-0.02734375,0.03515625,24.5,-3.25,-29.875,24.5,-3.25,-29.875,-0.00791644653542809,-0.6428910584737744,0.04993216028977341,0.7642873780048431,27.189290389284963,79.0872086034988,-156.23118282001215,0.53814697265625,0.4951171875,0.41290283203125,-0.54296875,26.601640241418302,79.13411781413723,-68.42886122189888,2.3865782185476743,,,,3,0,3,3
1788945655.988774,744196596.0,-9.33984375,0.84765625,1.61328125,0.015625,-0.02734375,0.0234375,24.5,-3.25,-29.875,24.5,-3.25,-29.875,-0.007954440900082169,-0.6428441703604492,0.04979681554951968,0.7643352514863357,27.12744282609768,79.08364921239425,-156.27892489898397,0.53814697265625,0.4951171875,0.41290283203125,-0.54296875,26.601640241418302,79.13411781413723,-68.42886122189888,2.375134632428819,,,,3,0,3,3
1788945655.991495,744200402.0,-9.33984375,0.921875,1.61328125,0.015625,-0.025390625,0.025390625,24.5,-3.25,-29.875,24.5,-3.25,-29.875,-0.008094753594526589,-0.642794399902675,0.04971584659218816,0.7643809057110375,27.123820461583154,79.07456024419015,-156.26455326215472,0.53826904296875,0.4951171875,0.41278076171875,-0.54290771484375,26.65662174148485,79.10648006562728,-68.35560094136851,2.4556215339690124,,,,3,0,3,3
1788945655.9973216,744204885.0,-9.33984375,0.921875,1.61328125,0.017578125,-0.029296875,0.03125,24.5,-3.25,-29.875,24.5,-3.25,-29.875,-0.0082682498947654,-0.6427305902909267,0.04963244398940839,0.7644381236251845,27.125873586682633,79.0625139723373,-156.2416138353721,0.53826904296875,0.4951171875,0.41278076171875,-0.54290771484375,26.65662174148485,79.10648006562728,-68.35560094136851,2.458593961773185,,,,3,0,3,3
1788945656.0009832,744208868.0,-9.37890625,0.921875,1.65234375,0.005859375,-0.02734375,0.021484375,26.8125,0.0625,-35.0,26.8125,0.0625,-35.0,-0.008314766673364785,-0.6426964963542363,0.04947427754739979,0.7644765359972271,27.06144670009001,79.06108341612857,-156.2893765639745,0.53839111328125,0.4951171875,0.41259765625,-0.54296875,26.6884104178629,79.09558650941338,-68.35023735119525,2.3011060580312623,,,,3,0,3,3
1788945656.002682,744213950.0,-9.33984375,0.921875,1.65234375,0.005859375,-0.021484375,0.02734375,26.8125,0.0625,-35.0,26.8125,0.0625,-35.0,-0.008387410120123976,-0.6426622991247743,0.049282288142393896,0.764516891056428,26.991264897361177,79.05975981947779,-156.33801202947515,0.53839111328125,0.4951171875,0.41259765625,-0.54296875,26.6884104178629,79.09558650941338,-68.35023735119525,2.286375957386693,,,,3,0,3,3
1788945656.009767,744216404.0,-9.37890625,0.921875,1.61328125,0.005859375,-0.021484375,0.02734375,27.3125,-4.5625,-37.0625,27.3125,-4.5625,-37.0625,-0.008477662213179311,-0.6426365409767019,0.049409694011899076,0.76452932421363,27.06939043906238,79.0493610018211,-156.26294103223748,0.53839111328125,0.4951171875,0.41259765625,-0.54296875,26.6884104178629,79.09558650941338,-68.35023735119525,2.3057910481319843,,,,3,0,2,3
1788945656.0075855,744224063.0,-9.41796875,0.921875,1.65234375,-0.001953125,-0.01953125,0.021484375,27.3125,-4.5625,-37.0625,27.3125,-4.5625,-37.0625,-0.008751094751853926,-0.6424787587021629,0.049741814660923665,0.7646373093378391,27.255007372362968,79.00861669528848,-156.08221730938317,0.5384521484375,0.4951171875,0.4124755859375,-0.54290771484375,26.72675159886375,79.05280271058425,-68.27000551274969,2.612063949886251,,,,3,0,2,3
1788945656.016644,744224616.0,-9.45703125,0.921875,1.61328125,-0.0078125,-0.015625,0.021484375,27.3125,-4.5625,-37.0625,27.3125,-4.5625,-37.0625,-0.008772718709194952,-0.6424784493674435,0.0497650308713124,0.7646358108323414,27.2723978931708,79.00712712109154,-156.06496063257808,0.5384521484375,0.4951171875,0.4124755859375,-0.54290771484375,26.72675159886375,79.05280271058425,-68.27000551274969,2.6155480602699326,,,,3,0,2,3
1788945656.0182042,744228369.0,-9.453125,0.8828125,1.61328125,-0.0078125,-0.015625,0.021484375,27.3125,-4.5625,-37.0625,27.3125,-4.5625,-37.0625,-0.008904672579505547,-0.6424967788396428,0.049913494233907583,0.7646092067718624,27.38818665278472,79.00053893718206,-155.95053484295292,0.5384521484375,0.4951171875,0.4124755859375,-0.54290771484375,26.72675159886375,79.05280271058425,-68.27000551274969,2.637408383790414,,,,3,0,2,3
1788945656.0203183,744231952.0,-9.453125,0.8828125,1.61328125,-0.013671875,-0.009765625,0.017578125,27.3125,-4.5625,-37.0625,27.3125,-4.5625,-37.0625,-0.00903454831807049,-0.6425265382346389,0.050036461622878545,0.7645746380237589,27.495964680400554,78.99630529179622,-155.84220609529132,0.53857421875,0.4951171875,0.41241455078125,-0.54290771484375,26.763523923650183,79.06335490645552,-68.26334099887029,2.4379785992762897,,,,3,0,2,3
1788945656.0323434,744243794.0,-9.5234375,0.84765625,1.61328125,-0.013671875,-0.01171875,0.013671875,25.9375,-4.25,-35.5625,25.9375,-4.25,-35.5625,-0.009103641324052338,-0.6427582861409628,0.04969234716539286,0.7644014520819341,27.448915954456922,79.03572689292955,-155.85549482859017,0.53863525390625,0.49505615234375,0.41241455078125,-0.5428466796875,26.759235566598207,79.04031813228411,-68.23189638680866,2.567545696053158,,,,3,0,2,3
1788945656.0380518,744248177.0,-9.49609375,0.84765625,1.61328125,-0.01171875,-0.013671875,0.01171875,23.3125,-4.875,-31.625,23.3125,-4.875,-31.625,-0.009124442191680269,-0.6427399807877173,0.04990403940602993,0.7644028051378783,27.541768267195287,79.02603815848653,-155.77821467813493,0.53863525390625,0.49505615234375,0.41241455078125,-0.5428466796875,26.759235566598207,79.04031813228411,-68.23189638680866,2.5886445372245057,,,,3,0,3,3
1788945656.0421147,744253360.0,-9.52734375,0.76953125,1.578125,-0.01171875,-0.013671875,0.009765625,23.3125,-4.875,-31.625,23.3125,-4.875,-31.625,-0.009078332755009189,-0.6427607043267242,0.050111182015762715,0.7643723767149007,27.622917306294887,79.024053946572,-155.7176949914296,0.53875732421875,0.4949951171875,0.41241455078125,-0.54278564453125,26.771206817597406,79.03248453545362,-68.20789979253703,2.5888430348785234,,,,3,0,3,3
1788945656.0480793,744256066.0,-9.52734375,0.80859375,1.61328125,-0.01171875,-0.013671875,0.009765625,23.3125,-4.875,-31.625,23.3125,-4.875,-31.625,-0.009068546799407745,-0.6427538481418421,0.05023548437572541,0.764370099014435,27.671137367021522,79.01963627547983,-155.68040700750208,0.53875732421875,0.4949951171875,0.41241455078125,-0.54278564453125,26.771206817597406,79.03248453545362,-68.20789979253703,2.6000255284275258,,,,3,0,3,3
1788945656.0518312,744259372.0,-9.52734375,0.80859375,1.61328125,0.001953125,-0.009765625,0.001953125,23.3125,-4.875,-31.625,23.3125,-4.875,-31.625,-0.009031194529744229,-0.6427514835825254,0.0503958351151171,0.7643619742509947,27.72706001680885,79.0156654983788,-155.64059589694725,0.53887939453125,0.49493408203125,0.41241455078125,-0.54278564453125,26.769621497883694,79.04285794320916,-68.22833513860515,2.426581745409948,,,,3,0,3,3
1788945656.056099,744263755.0,-9.453125,0.80859375,1.61328125,-0.0078125,-0.013671875,0.00390625,23.3125,-4.875,-31.625,23.3125,-4.875,-31.625,-0.009000499806999266,-0.6427312089756589,0.05059907164475183,0.7643659581382477,27.797665734534938,79.00771845215817,-155.58906355983794,0.53887939453125,0.49493408203125,0.41241455078125,-0.54278564453125,26.769621497883694,79.04285794320916,-68.22833513860515,2.4454733869560354,,,,3,0,3,3
1788945656.058052,744267108.0,-9.453125,0.80859375,1.578125,-0.0078125,-0.013671875,0.00390625,24.375,-7.3125,-31.75,24.375,-7.3125,-31.75,-0.008997779291706923,-0.6427201733672822,0.05075735482832248,0.7643647752515681,27.861454700258726,79.00142080614538,-155.53840446806842,0.53887939453125,0.49493408203125,0.41241455078125,-0.54278564453125,26.769621497883694,79.04285794320916,-68.22833513860515,2.46164232809389,,,,3,0,3,3
1788945656.054117,744273768.0,-9.453125,0.80859375,1.61328125,0.001953125,-0.015625,0.0078125,24.375,-7.3125,-31.75,24.375,-7.3125,-31.75,-0.008980058811281201,-0.6426812388162694,0.05110802680115978,0.7643743542360795,27.99360813133073,78.9859031070562,-155.43629742078846,0.5389404296875,0.494873046875,0.41241455078125,-0.54278564453125,26.7518027922601,79.03806175885491,-68.24134683853057,2.4843512049259617,,,,3,0,3,3
1788945656.0650434,744274797.0,-9.41796875,0.84765625,1.61328125,0.0,-0.015625,0.00390625,24.375,-7.3125,-31.75,24.375,-7.3125,-31.75,-0.00897819373242674,-0.6426748796260071,0.05116035928204514,0.7643762220092488,28.013380631577604,78.98348321087163,-155.42094580419945,0.5389404296875,0.494873046875,0.41241455078125,-0.54278564453125,26.7518027922601,79.03806175885491,-68.24134683853057,2.489694557710683,,,,3,0,3,3
1788945656.0741408,744282680.0,-9.37890625,0.84765625,1.61328125,0.0,-0.015625,0.0,24.375,-7.3125,-31.75,24.375,-7.3125,-31.75,-0.008953112184841109,-0.6426242059924456,0.05155187608389172,0.7643928150676297,28.15624349494776,78.96533242412711,-155.3120642888992,0.53900146484375,0.49481201171875,0.41241455078125,-0.54278564453125,26.734001830194746,79.0332676464163,-68.25434374866249,2.5168830907058823,,,,3,0,3,3
1788945656.0791957,744286639.0,-9.37890625,0.84765625,1.61328125,-0.005859375,-0.017578125,0.005859375,23.9375,-5.0625,-29.8125,23.9375,-5.0625,-29.8125,-0.008955736178401954,-0.6425912584052783,0.05174705470628665,0.7644072944051806,28.229787454494108,78.95470239414308,-155.25423381428035,0.53900146484375,0.49481201171875,0.41241455078125,-0.54278564453125,26.734001830194746,79.0332676464163,-68.25434374866249,2.5376489937685,,,,3,0,3,3
1788945656.0831027,744291222.0,-9.375,0.80859375,1.61328125,-0.013671875,-0.017578125,-0.001953125,23.9375,-5.0625,-29.8125,23.9375,-5.0625,-29.8125,-0.008928647310611236,-0.6425548879349062,0.05194416175037344,0.7644248159944924,28.292824540848837,78.94459782817222,-155.20948606223547,0.5390625,0.49468994140625,0.41241455078125,-0.54278564453125,26.68224410431379,79.00854664185381,-68.27292646898233,2.7002912285913885,,,,3,0,3,3
1788945656.0861025,744298682.0,-9.4140625,0.80859375,1.61328125,-0.01171875,-0.013671875,0.001953125,23.8125,-4.6875,-30.4375,23.8125,-4.6875,-30.4375,-0.008826883528561244,-0.6425214344730269,0.052257385371406076,0.7644327688188421,28.38145360287884,78.9338813747219,-155.15468786009532,0.5390625,0.49468994140625,0.41241455078125,-0.54278564453125,26.68224410431379,79.00854664185381,-68.27292646898233,2.726018741661929,,,,3,0,3,3
1788945656.0861025,744302864.0,-9.4140625,0.80859375,1.61328125,-0.015625,-0.009765625,0.005859375,23.8125,-4.6875,-30.4375,23.8125,-4.6875,-30.4375,-0.008774106648560324,-0.6425095316988277,0.05242839342513,0.7644316714341004,28.43293661777253,78.92878022137832,-155.12144673582395,0.5391845703125,0.49462890625,0.41241455078125,-0.542724609375,26.694209291897174,79.00075105704396,-68.24898055616649,2.725447343936061,,,,3,0,3,3
1788945656.0861025,744306447.0,-9.375,0.76953125,1.65234375,-0.015625,-0.0078125,0.001953125,28.0,-3.25,-34.4375,28.0,-3.25,-34.4375,-0.008766033052258952,-0.6424948812415493,0.05223615108139627,0.7644572380212877,28.34263025237221,78.93315853793794,-155.196739977033,0.5391845703125,0.49462890625,0.41241455078125,-0.542724609375,26.694209291897174,79.00075105704396,-68.24898055616649,2.705233979049234,,,,3,0,2,3
1788945656.0986435,744314307.0,-9.4140625,0.80859375,1.65234375,-0.015625,-0.00390625,0.005859375,28.0,-3.25,-34.4375,28.0,-3.25,-34.4375,-0.008781502882765024,-0.6424766410167153,0.05182072612597346,0.7645006627196445,28.163038530198108,78.94318947556243,-155.34120720805998,0.53924560546875,0.49456787109375,0.4124755859375,-0.54266357421875,26.685779587542584,78.99761243031534,-68.23904605805019,2.6929883884934918,,,,3,0,2,3
1788945656.1025786,744314660.0,-9.41796875,0.84765625,1.61328125,-0.01171875,0.0,0.00390625,28.0,-3.25,-34.4375,28.0,-3.25,-34.4375,-0.008782839926634268,-0.6424779436056717,0.0518020421724071,0.764500818920306,28.15590258618815,78.94390112946827,-155.34671043212944,0.53924560546875,0.49456787109375,0.4124755859375,-0.54266357421875,26.685779587542584,78.99761243031534,-68.23904605805019,2.6911748725917763,,,,3,0,2,3
1788945656.1025786,744318213.0,-9.45703125,0.84765625,1.61328125,-0.01171875,0.0,0.00390625,28.0,-3.25,-34.4375,28.0,-3.25,-34.4375,-0.008795100649283131,-0.6424939170050741,0.051614047714899865,0.7644999691919745,28.08464275985772,78.95148299879781,-155.40163816205174,0.53924560546875,0.49456787109375,0.4124755859375,-0.54266357421875,26.685779587542584,78.99761243031534,-68.23904605805019,2.672893459827855,,,,3,0,2,3
1788945656.1025786,744322396.0,-9.37890625,0.84765625,1.61328125,-0.013671875,-0.001953125,0.005859375,28.0,-3.25,-34.4375,28.0,-3.25,-34.4375,-0.008819185423637702,-0.6425024197504206,0.051392276109374295,0.7645074862547886,28.00019796713439,78.95868633796155,-155.46603834672044,0.539306640625,0.4945068359375,0.4124755859375,-0.54266357421875,26.66804736594901,78.99284242684674,-68.25201458641332,2.6402640991974815,,,,3,0,2,3
1788945656.1187372,744326355.0,-9.37890625,0.84765625,1.65234375,-0.009765625,0.005859375,-0.001953125,25.6875,-5.5,-37.4375,25.6875,-5.5,-37.4375,-0.00880200238098912,-0.6424752968887251,0.051566028506809004,0.764518778282041,28.059913495348198,78.95023677908307,-155.42189809815233,0.539306640625,0.4945068359375,0.4124755859375,-0.54266357421875,26.66804736594901,78.99284242684674,-68.25201458641332,2.6568403979230566,,,,3,0,2,3
1788945656.116784,744334038.0,-9.37890625,0.84765625,1.65234375,-0.01953125,0.009765625,-0.001953125,25.6875,-5.5,-37.4375,25.6875,-5.5,-37.4375,-0.008789565747734797,-0.6424329104444336,0.05187350942599222,0.7645337390407908,28.173415297357426,78.93538604134274,-155.33449584432668,0.539306640625,0.4945068359375,0.41253662109375,-0.5426025390625,26.67735463580537,78.99448363220786,-68.22912016679538,2.727729205725299,,,,3,0,2,3
1788945656.1187372,744338221.0,-9.37890625,0.84765625,1.61328125,-0.017578125,0.015625,-0.00390625,25.6875,-5.5,-37.4375,25.6875,-5.5,-37.4375,-0.008772884647624195,-0.6424542925224838,0.05204390951262079,0.7645043819344901,28.248364974475674,78.93350961275564,-155.2747887699213,0.539306640625,0.4945068359375,0.41253662109375,-0.5426025390625,26.67735463580537,78.99448363220786,-68.22912016679538,2.744014379319068,,,,3,0,2,3
1788945656.1187372,744341527.0,-9.33984375,0.84765625,1.61328125,-0.015625,0.0234375,0.001953125,25.6875,-5.5,-37.4375,25.6875,-5.5,-37.4375,-0.00876626516647342,-0.6424748759657357,0.05218799471384607,0.7644773375029448,28.315117715166892,78.9319827166419,-155.22031495156608,0.539306640625,0.4945068359375,0.41265869140625,-0.54254150390625,26.682491083391806,79.01590407422563,-68.22758254317685,2.681520007326192,,,,3,0,2,3
1788945656.135936,744345310.0,-9.37890625,0.84765625,1.61328125,-0.015625,0.0234375,-0.001953125,23.0625,-4.25,-30.875,23.0625,-4.25,-30.875,-0.00871626920552511,-0.642508791244516,0.052335960028114595,0.764439289356966,28.37351528112878,78.93365459725837,-155.17803568373978,0.539306640625,0.4945068359375,0.41265869140625,-0.54254150390625,26.682491083391806,79.01590407422563,-68.22758254317685,2.6942248539603915,,,,3,0,3,3
1788945656.133983,744352993.0,-9.375,0.8828125,1.61328125,-0.0234375,0.0234375,-0.00390625,23.0625,-4.25,-30.875,23.0625,-4.25,-30.875,-0.008789602734081026,-0.6425612903978594,0.05263793481966192,0.7643735858753465,28.54600262018255,78.92853450813067,-155.02418597551258,0.53936767578125,0.4945068359375,0.41278076171875,-0.54241943359375,26.71741922445901,79.03436050389509,-68.1891189227653,2.648659791393152,,,,3,0,3,3
1788945656.135936,744354175.0,-9.37890625,0.84765625,1.65234375,-0.03125,0.02734375,0.001953125,23.0625,-4.25,-30.875,23.0625,-4.25,-30.875,-0.00878308936485572,-0.6425445990221743,0.052651779403865215,0.7643867383296553,28.543941583505447,78.92609645054219,-155.02791248883202,0.53936767578125,0.4945068359375,0.41278076171875,-0.54241943359375,26.71741922445901,79.03436050389509,-68.1891189227653,2.6497597146434355,,,,3,0,3,3
1788945656.135936,744357152.0,-9.4140625,0.80859375,1.65234375,-0.03125,0.02734375,0.001953125,23.0625,-4.25,-30.875,23.0625,-4.25,-30.875,-0.008705288501444822,-0.6425202605573906,0.0526117102872453,0.7644108454659839,28.492122184901575,78.92689024685478,-155.08280265775505,0.53936767578125,0.4945068359375,0.41278076171875,-0.54241943359375,26.71741922445901,79.03436050389509,-68.1891189227653,2.6409634118844187,,,,3,0,3,3
1788945656.1525674,744361135.0,-9.4140625,0.80859375,1.61328125,-0.02734375,0.021484375,0.005859375,23.0625,-4.25,-30.875,23.0625,-4.25,-30.875,-0.008558870429237668,-0.6425750293680653,0.05258366016512671,0.764368390276079,28.449763980599517,78.94033978840349,-155.13476092394902,0.5394287109375,0.49444580078125,0.4129638671875,-0.542236328125,26.727786782173528,79.03455574848782,-68.1333082356346,2.7411814040150992,,,,3,0,3,3
1788945656.1573112,744365041.0,-9.4140625,0.80859375,1.61328125,-0.0234375,0.025390625,0.001953125,23.0625,-4.25,-30.875,23.0625,-4.25,-30.875,-0.008404058527831371,-0.6426311892203664,0.052565579272635055,0.7643241369453216,28.40923303906659,78.95395631587373,-155.1863868833599,0.5394287109375,0.49444580078125,0.4129638671875,-0.542236328125,26.727786782173528,79.03455574848782,-68.1333082356346,2.731188407720601,,,,3,0,3,3
1788945656.1630046,744373477.0,-9.4140625,0.76953125,1.61328125,-0.021484375,0.029296875,0.005859375,24.625,-4.0625,-29.25,24.625,-4.0625,-29.25,-0.00820302594423024,-0.6427547539570682,0.05220154544482451,0.7642473652451273,28.22709597830594,78.98909014429995,-155.35514202323301,0.5394287109375,0.49444580078125,0.4130859375,-0.5421142578125,26.746635713870567,79.03786420770172,-68.08733480178803,2.7628934144658968,,,,3,0,3,3
1788945656.1693223,744377460.0,-9.375,0.76953125,1.61328125,-0.013671875,0.029296875,0.00390625,24.625,-4.0625,-29.25,24.625,-4.0625,-29.25,-0.008087222768213668,-0.6427977348831132,0.05204723377006863,0.7642229742123172,28.13591463915951,79.00377662144479,-155.44314288900665,0.5394287109375,0.49444580078125,0.4130859375,-0.5421142578125,26.746635713870567,79.03786420770172,-68.08733480178803,2.741230723828815,,,,3,0,3,3
1788945656.1693223,744381166.0,-9.37890625,0.73046875,1.61328125,-0.015625,0.021484375,0.005859375,24.625,-4.0625,-29.25,24.625,-4.0625,-29.25,-0.007985125935145077,-0.6428291337620301,0.05190156340593901,0.7642075439738717,28.048928958147794,79.01613137460308,-155.52654272887287,0.53948974609375,0.49444580078125,0.41326904296875,-0.54193115234375,26.791289843300458,79.05804606636069,-68.0257191159794,2.6806328023940313,,,,3,0,3,3
1788945656.1795247,744385025.0,-9.4140625,0.76953125,1.61328125,-0.015625,0.017578125,0.013671875,24.25,-4.0625,-29.375,24.25,-4.0625,-29.375,-0.007872857487601588,-0.6428612977675782,0.05177869392490555,0.7641899873742105,27.968439071867728,79.02821927569849,-155.60613300227436,0.53948974609375,0.49444580078125,0.41326904296875,-0.54193115234375,26.791289843300458,79.05804606636069,-68.0257191159794,2.6621086039317214,,,,3,0,3,3
1788945656.184751,744392232.0,-9.41796875,0.73046875,1.61328125,-0.005859375,0.01953125,0.01171875,24.25,-4.0625,-29.375,24.25,-4.0625,-29.375,-0.007648232851394178,-0.6429285870039717,0.051555842090834934,0.7641507257692243,27.817893759600604,79.0520358056244,-155.75675139410154,0.53955078125,0.49444580078125,0.413330078125,-0.54180908203125,26.830650732188897,79.05671700514823,-67.96566965470414,2.6653190882036526,,,,3,0,3,3
1788945656.1859317,744396991.0,-9.37890625,0.69140625,1.61328125,-0.00390625,0.017578125,0.01953125,24.0625,-5.3125,-31.1875,24.0625,-5.3125,-31.1875,-0.0075677840782158836,-0.6429502304046755,0.05178000532123709,0.7641181590013763,27.895240923719168,79.05086000617258,-155.70421524403557,0.53955078125,0.49444580078125,0.413330078125,-0.54180908203125,26.830650732188897,79.05671700514823,-67.96566965470414,2.6849616100647564,,,,3,0,3,3
1788945656.1839786,744400197.0,-9.296875,0.69140625,1.61328125,-0.0078125,0.01171875,0.021484375,24.0625,-5.3125,-31.1875,24.0625,-5.3125,-31.1875,-0.007520232346651842,-0.642948609203802,0.05192883845875785,0.7641098924661774,27.943098177486352,79.04771672872953,-155.67236110585188,0.53961181640625,0.4945068359375,0.41339111328125,-0.54168701171875,26.904273314214052,79.07536542639787,-67.89986947289684,2.5818315415683397,,,,3,0,3,3
1788945656.1956644,744404380.0,-9.33984375,0.69140625,1.61328125,0.0,0.01953125,0.01953125,24.0625,-5.3125,-31.1875,24.0625,-5.3125,-31.1875,-0.007440407513460131,-0.642964722931582,0.052129879652526925,0.7640834254510174,28.008693220351294,79.04647715337067,-155.6296437816811,0.53961181640625,0.4945068359375,0.41339111328125,-0.54168701171875,26.904273314214052,79.07536542639787,-67.89986947289684,2.6001012577932463,,,,3,0,3,3
1788945656.1995995,744408333.0,-9.37890625,0.69140625,1.61328125,0.0,0.01953125,0.01953125,28.25,-3.75,-34.8125,28.25,-3.75,-34.8125,-0.007413166473059689,-0.642997839526923,0.05196706703966118,0.7640669128223309,27.940000872573933,79.05692325423438,-155.68726334833673,0.53961181640625,0.4945068359375,0.41339111328125,-0.54168701171875,26.904273314214052,79.07536542639787,-67.89986947289684,2.5809477261473064,,,,3,0,2,3
1788945656.2024674,744413516.0,-9.375,0.76953125,1.61328125,0.0,0.017578125,0.029296875,28.25,-3.75,-34.8125,28.25,-3.75,-34.8125,-0.007426045853513401,-0.643033074511519,0.05176334498309501,0.7640509636427442,27.867877822696826,79.06749781928373,-155.74171448686923,0.5396728515625,0.49456787109375,0.41339111328125,-0.54150390625,26.995557659717967,79.0558737748735,-67.76816343865778,2.7255233810659756,,,,3,0,2,3
1788945656.2064025,744416199.0,-9.375,0.76953125,1.61328125,0.005859375,0.015625,0.037109375,28.25,-3.75,-34.8125,28.25,-3.75,-34.8125,-0.00743586099792874,-0.643048477161516,0.0516706532060439,0.7640441790817698,27.83616786556365,79.0720828474251,-155.76506259884036,0.5396728515625,0.49456787109375,0.41339111328125,-0.54150390625,26.995557659717967,79.0558737748735,-67.76816343865778,2.7164477879639204,,,,3,0,2,3
1788945656.213986,744423882.0,-9.375,0.6171875,1.61328125,0.0,0.01953125,0.037109375,28.25,-3.75,-34.8125,28.25,-3.75,-34.8125,-0.007407853030511843,-0.6431090459545458,0.05140677530680082,0.7640112709754145,27.732257221439422,79.08933315316138,-155.84971283782613,0.5396728515625,0.49468994140625,0.413330078125,-0.5413818359375,27.095239970773505,79.03945369620607,-67.6463122562,2.818848013704895,,,,3,0,2,3
1788945656.2199192,744428064.0,-9.4140625,0.578125,1.65234375,0.005859375,0.0234375,0.044921875,28.25,-3.75,-34.8125,28.25,-3.75,-34.8125,-0.007392798106909961,-0.6431355469211626,0.05128772238941518,0.763997110174295,27.684168066184295,79.09708139592789,-155.8893096504552,0.5396728515625,0.49468994140625,0.413330078125,-0.5413818359375,27.095239970773505,79.03945369620607,-67.6463122562,2.8066723254463133,,,,3,0,2,3
1788945656.2199192,744431371.0,-9.4140625,0.5390625,1.65234375,0.015625,0.017578125,0.0546875,28.25,-3.75,-34.8125,28.25,-3.75,-34.8125,-0.007378424859486864,-0.643149216155345,0.05121778573479581,0.7639904338601254,27.653333059652333,79.10156707535022,-155.91560645186078,0.53973388671875,0.494873046875,0.41326904296875,-0.541259765625,27.24552624269133,79.05815626641197,-67.52626361151621,2.6204105536178144,,,,3,0,2,3
1788945656.2235515,744435430.0,-9.4140625,0.42578125,1.65234375,0.01953125,0.02734375,0.064453125,27.125,-7.875,-37.125,27.125,-7.875,-37.125,-0.007317016914090139,-0.6431746246517328,0.05147956027170538,0.7639520392942304,27.755269337720396,79.0991110138823,-155.8399962499846,0.53973388671875,0.494873046875,0.41326904296875,-0.541259765625,27.24552624269133,79.05815626641197,-67.52626361151621,2.6446399890917403,,,,3,0,2,3
1788945656.2336612,744443789.0,-9.33984375,0.69140625,1.65234375,0.052734375,0.03125,0.080078125,27.125,-7.875,-37.125,27.125,-7.875,-37.125,-0.0073316957784448624,-0.6432224143092121,0.05226487401911866,0.7638583343205768,28.11933779974884,79.0807796130448,-155.5387420888688,0.539794921875,0.49517822265625,0.41314697265625,-0.54107666015625,27.48209389419967,79.0786049835766,-67.32889725528675,2.5140126143052752,,,,3,0,2,3
1788945656.2364557,744447396.0,-9.453125,0.76953125,1.61328125,0.07421875,0.0390625,0.08203125,27.125,-7.875,-37.125,27.125,-7.875,-37.125,-0.007330361554858549,-0.6432666475265835,0.05263808242039657,0.7637954688648583,28.296685634094427,79.07514456234571,-155.39191419086393,0.539794921875,0.49517822265625,0.41314697265625,-0.54107666015625,27.48209389419967,79.0786049835766,-67.32889725528675,2.5554603729022936,,,,3,0,2,3
1788945656.2364557,744450902.0,-9.49609375,0.73046875,1.65234375,0.076171875,0.041015625,0.07421875,27.125,-7.875,-37.125,27.125,-7.875,-37.125,-0.007304516971947958,-0.6433053087037972,0.05299264319545902,0.7637386356552074,28.455477723605615,79.07015057053795,-155.26411807299533,0.53973388671875,0.49560546875,0.412841796875,-0.5408935546875,27.7661832950075,79.04870328933242,-67.0413670895763,2.7621258424561166,,,,3,0,2,3
1788945656.2481596,744455461.0,-9.4921875,0.76953125,1.65234375,0.080078125,0.05078125,0.07421875,23.8125,-5.1875,-30.5625,23.8125,-5.1875,-30.5625,-0.007237081704641409,-0.6433490563676791,0.05344685632675989,0.7636707732184098,28.645021286343358,79.06413210668777,-155.11707743260092,0.53973388671875,0.49560546875,0.412841796875,-0.5408935546875,27.7661832950075,79.04870328933242,-67.0413670895763,2.805881835986405,,,,3,0,3,3
1788945656.2524796,744463344.0,-9.4921875,0.9609375,1.61328125,0.072265625,0.056640625,0.0703125,23.8125,-5.1875,-30.5625,23.8125,-5.1875,-30.5625,-0.007329312869297505,-0.6434886788713342,0.05422995009411653,0.7634970293655887,29.065123613013903,79.05456495411175,-154.7532718505325,0.5396728515625,0.49609375,0.41259765625,-0.54071044921875,28.081503118972698,79.05854984697378,-66.7689698110443,2.7898012885726353,,,,3,0,3,3
1788945656.2524796,744466927.0,-9.5234375,0.921875,1.61328125,0.072265625,0.068359375,0.0703125,23.5625,-5.125,-30.25,23.5625,-5.125,-30.25,-0.007354410425990208,-0.643568361320589,0.05458704121514285,0.7634041733484265,29.25652891074312,79.05280940282196,-154.58891142963108,0.5396728515625,0.49609375,0.41259765625,-0.54071044921875,28.081503118972698,79.05854984697378,-66.7689698110443,2.828248392391033,,,,3,0,3,3
1788945656.2524796,744471010.0,-9.52734375,0.9609375,1.65234375,0.05859375,0.064453125,0.07421875,23.5625,-5.125,-30.25,23.5625,-5.125,-30.25,-0.007421848755030938,-0.6436296676800037,0.054974669672487646,0.763324015564548,29.468746885636847,79.04596358371815,-154.40279377299817,0.53961181640625,0.49658203125,0.4124755859375,-0.54046630859375,28.404449581872772,79.08982461153788,-66.49320636589668,2.6925888543034957,,,,3,0,3,3
1788945656.2691426,744475469.0,-9.52734375,1.0,1.65234375,0.05078125,0.068359375,0.07421875,23.875,-4.6875,-30.125,23.875,-4.6875,-30.125,-0.007546795063292909,-0.6436882073129618,0.05536968414342397,0.7632448727167158,29.70229194013948,79.03625362691375,-154.1912765774857,0.53961181640625,0.49658203125,0.4124755859375,-0.54046630859375,28.404449581872772,79.08982461153788,-66.49320636589668,2.7411730621345094,,,,3,0,3,3
1788945656.2691426,744483052.0,-9.453125,1.0390625,1.65234375,0.048828125,0.07421875,0.0703125,23.875,-4.6875,-30.125,23.875,-4.6875,-30.125,-0.007780084483722887,-0.6437961812658313,0.05600994344198633,0.763104732987933,30.095210085036182,79.02077411600102,-153.83155634657456,0.53955078125,0.49700927734375,0.412353515625,-0.54022216796875,28.693319164547667,79.10105113369275,-66.22292562390068,2.7872984275873143,,,,3,0,3,3
1788945656.2780197,744486835.0,-9.4140625,1.0390625,1.65234375,0.041015625,0.0859375,0.06640625,24.75,-5.25,-30.75,24.75,-5.25,-30.75,-0.00788123188551303,-0.6438724134370509,0.05632379742898194,0.7630162719378225,30.291685283602092,79.0166092846152,-153.65241985036727,0.53955078125,0.49700927734375,0.412353515625,-0.54022216796875,28.693319164547667,79.10105113369275,-66.22292562390068,2.825740126146261,,,,3,0,3,3
1788945656.2843158,744490241.0,-9.4140625,1.0390625,1.65234375,0.037109375,0.095703125,0.056640625,24.75,-5.25,-30.75,24.75,-5.25,-30.75,-0.007964156865059326,-0.6439525327439234,0.05658945822338578,0.7629281361937694,30.462806925050288,79.01516028853472,-153.4961869513724,0.53948974609375,0.49749755859375,0.412353515625,-0.53985595703125,29.039627989277736,79.13529995879409,-65.89728917060977,2.7551911042455615,,,,3,0,3,3
1788945656.290004,744498677.0,-9.453125,1.0390625,1.65234375,0.013671875,0.099609375,0.05859375,24.25,-3.125,-29.1875,24.25,-3.125,-29.1875,-0.008256193211628482,-0.6441918607044685,0.05643413513969674,0.762734469043324,30.583139217326877,79.0408008638011,-153.33933274597047,0.53948974609375,0.49749755859375,0.412353515625,-0.53985595703125,29.039627989277736,79.13529995879409,-65.89728917060977,2.7502459286418994,,,,3,0,3,3
1788945656.294248,744502283.0,-9.4140625,1.0390625,1.61328125,0.017578125,0.111328125,0.046875,24.25,-3.125,-29.1875,24.25,-3.125,-29.1875,-0.008367238358656498,-0.6443237240238132,0.05635192822262538,0.7626279487193781,30.63451760057312,79.05670369276902,-153.2721623828725,0.53936767578125,0.4979248046875,0.4124755859375,-0.53948974609375,29.331123411587797,79.17416181716948,-65.60880454679683,2.71768860630948,,,,3,0,3,3
1788945656.3020813,744506243.0,-9.453125,1.0390625,1.61328125,0.021484375,0.11328125,0.041015625,26.9375,-6.75,-36.0,26.9375,-6.75,-36.0,-0.008436012204109703,-0.6444695493751168,0.05663048770654158,0.7624833253838703,30.831869420017757,79.06381654590609,-153.09187362181507,0.53936767578125,0.4979248046875,0.4124755859375,-0.53948974609375,29.331123411587797,79.17416181716948,-65.60880454679683,2.751349787039121,,,,3,0,2,3
1788945656.300426,744513725.0,-9.453125,1.078125,1.61328125,0.013671875,0.115234375,0.02734375,26.9375,-6.75,-36.0,26.9375,-6.75,-36.0,-0.008562099748272777,-0.6447510774403994,0.057099114484525794,0.7622089147421641,31.181833335024933,79.07988364468738,-152.7697554662733,0.5391845703125,0.498291015625,0.41265869140625,-0.53912353515625,29.57044276912701,79.19754660194448,-65.33669164899369,2.9640072404662106,,,,3,0,2,3
1788945656.3024225,744518008.0,-9.4140625,1.0390625,1.61328125,0.01171875,0.123046875,0.013671875,26.9375,-6.75,-36.0,26.9375,-6.75,-36.0,-0.008605355938503907,-0.6449196821873262,0.05734520511089406,0.7620472943507898,31.36641155851625,79.09180184642439,-152.60165793729553,0.5391845703125,0.498291015625,0.41265869140625,-0.53912353515625,29.57044276912701,79.19754660194448,-65.33669164899369,2.991296969865859,,,,3,0,2,3
1788945656.3024225,744521814.0,-9.375,1.0390625,1.61328125,0.009765625,0.1328125,0.009765625,26.9375,-6.75,-36.0,26.9375,-6.75,-36.0,-0.008642009829737674,-0.6450799431700648,0.05755490575208282,0.7618954097575845,31.53039479691306,79.1040616760982,-152.45172798918293,0.5389404296875,0.49871826171875,0.41290283203125,-0.538818359375,29.816107471638382,79.26437701358635,-65.11288801909913,2.9221892474111946,,,,3,0,2,3
1788945656.319167,744525697.0,-9.4140625,1.0390625,1.61328125,0.009765625,0.13671875,0.00390625,27.25,-4.25,-35.3125,27.25,-4.25,-35.3125,-0.008725121484784699,-0.6452306791765214,0.05743960066734704,0.7617755149515218,31.56735001285317,79.12451506029592,-152.39854522255794,0.5389404296875,0.49871826171875,0.41290283203125,-0.538818359375,29.816107471638382,79.26437701358635,-65.11288801909913,2.9130037072787602,,,,3,0,2,3
1788945656.319167,744530080.0,-9.375,1.0390625,1.578125,0.01171875,0.13671875,-0.00390625,27.25,-4.25,-35.3125,27.25,-4.25,-35.3125,-0.008820538114781328,-0.6454190872122403,0.05728987452123396,0.7616260698314006,31.60856697274939,79.15060720798017,-152.3372775705475,0.53863525390625,0.49908447265625,0.41326904296875,-0.53851318359375,30.00772479170696,79.33613250027754,-64.92543662049135,2.879164336882286,,,,3,0,2,3
1788945656.3172138,744533333.0,-9.3359375,1.078125,1.61328125,0.01171875,0.13671875,-0.00390625,27.25,-4.25,-35.3125,27.25,-4.25,-35.3125,-0.00890206735527261,-0.6455324304864289,0.05723066958057202,0.761533508682609,31.654828435898548,79.16427102503512,-152.27951001604242,0.53863525390625,0.49908447265625,0.41326904296875,-0.53851318359375,30.00772479170696,79.33613250027754,-64.92543662049135,2.8759105232465783,,,,3,0,2,3
1788945656.334832,744537616.0,-9.30078125,1.0390625,1.61328125,0.013671875,0.146484375,-0.017578125,28.0,-6.625,-35.125,28.0,-6.625,-35.125,-0.00890392431025353,-0.6457265017200877,0.057428453653578,0.7613540423608282,31.81683932987144,79.18259614402632,-152.13339559391062,0.53863525390625,0.49908447265625,0.41326904296875,-0.53851318359375,30.00772479170696,79.33613250027754,-64.92543662049135,2.8968141144083086,,,,3,0,2,3
1788945656.331968,744543099.0,-9.2578125,1.078125,1.65234375,-0.005859375,0.14453125,-0.02734375,28.0,-6.625,-35.125,28.0,-6.625,-35.125,-0.008931977605892356,-0.6459540088201416,0.057608444237829716,0.7611470984098495,31.99382319287867,79.20479359731041,-151.96871278016238,0.538330078125,0.49945068359375,0.41363525390625,-0.5382080078125,30.20197598525818,79.40808974476165,-64.7358168609897,2.8934811748437803,,,,3,0,2,3
1788945656.328937,744548682.0,-9.21875,1.078125,1.61328125,-0.001953125,0.158203125,-0.033203125,28.0,-6.625,-35.125,28.0,-6.625,-35.125,-0.008945662144558936,-0.6462256113903511,0.05779651312170603,0.7609020944792668,32.187900313840416,79.23293086488422,-151.78874503250805,0.538330078125,0.49945068359375,0.41363525390625,-0.5382080078125,30.20197598525818,79.40808974476165,-64.7358168609897,2.913791440286234,,,,3,0,2,3
1788945656.3359032,744549611.0,-9.21875,1.078125,1.61328125,-0.015625,0.162109375,-0.04296875,28.0,-6.625,-35.125,28.0,-6.625,-35.125,-0.008948595809899545,-0.6462717688892866,0.05781960279147219,0.7608611022405996,32.217368283684365,79.2379943732485,-151.76090192876293,0.53790283203125,0.499755859375,0.4141845703125,-0.53790283203125,30.32347531323753,79.48975009272347,-64.59441254295457,3.0047021389095905,,,,3,0,2,3
1788945656.331968,744553841.0,-9.21875,1.0390625,1.578125,-0.015625,0.162109375,-0.04296875,28.0,-6.625,-35.125,28.0,-6.625,-35.125,-0.008952925985235253,-0.6464903022393127,0.05793223230607578,0.7606668066156561,32.35548713702201,79.26220289096463,-151.6315232929184,0.53790283203125,0.499755859375,0.4141845703125,-0.53790283203125,30.32347531323753,79.48975009272347,-64.59441254295457,3.015795679933731,,,,3,0,2,3
1788945656.3359032,744556847.0,-9.2578125,1.078125,1.61328125,-0.025390625,0.1640625,-0.048828125,24.4375,-3.3125,-30.1875,24.4375,-3.3125,-30.1875,-0.008985450986858714,-0.6466367612525129,0.05775629915988324,0.7605553040869398,32.34984604712559,79.28621699947603,-151.62011054741998,0.53790283203125,0.499755859375,0.4141845703125,-0.53790283203125,30.32347531323753,79.48975009272347,-64.59441254295457,2.9979918777361494,,,,3,0,3,3
1788945656.3489907,744563907.0,-9.2578125,1.0390625,1.578125,-0.03515625,0.17578125,-0.0546875,24.4375,-3.3125,-30.1875,24.4375,-3.3125,-30.1875,-0.009048348910947614,-0.6470381105306335,0.057258415871245444,0.7602508038238757,32.31882386353908,79.3536750539334,-151.60525105955423,0.5374755859375,0.50006103515625,0.41485595703125,-0.53753662109375,30.457843508191445,79.59386487662533,-64.44574836310215,2.9607118325216506,,,,3,0,3,3
1788945656.3529258,744564760.0,-9.2578125,1.0390625,1.578125,-0.05078125,0.177734375,-0.06640625,24.4375,-3.3125,-30.1875,24.4375,-3.3125,-30.1875,-0.00905727966356735,-0.6470861274024173,0.057191865379197314,0.7602148380181002,32.312557518373644,79.36194220676617,-151.60534484948514,0.5374755859375,0.50006103515625,0.41485595703125,-0.53753662109375,30.457843508191445,79.59386487662533,-64.44574836310215,2.9537881082779887,,,,3,0,3,3
1788945656.3529258,744568413.0,-9.3359375,1.0390625,1.5390625,-0.05078125,0.177734375,-0.06640625,24.4375,-3.3125,-30.1875,24.4375,-3.3125,-30.1875,-0.009099652231259778,-0.6473139122594154,0.05688461504632601,0.7600434434265657,32.28648449619537,79.4008659673757,-151.60282661157166,0.5374755859375,0.50006103515625,0.41485595703125,-0.53753662109375,30.457843508191445,79.59386487662533,-64.44574836310215,2.922113632973011,,,,3,0,3,3
1788945656.3529258,744572396.0,-9.375,1.0390625,1.5,-0.060546875,0.185546875,-0.0703125,24.4375,-3.3125,-30.1875,24.4375,-3.3125,-30.1875,-0.009160239972237175,-0.6475988497567545,0.05651750920900329,0.7598273428550658,32.263961732584505,79.44865319764942,-151.59037655099857,0.537109375,0.500244140625,0.41558837890625,-0.53717041015625,30.534646159004,79.69375048514894,-64.33883065159146,2.919991842360133,,,,3,0,3,3
1788945656.3695822,744577155.0,-9.4140625,1.0390625,1.4609375,-0.072265625,0.181640625,-0.078125,25.0,-5.0,-29.0,25.0,-5.0,-29.0,-0.009218430228866188,-0.6479408637700769,0.05648750677471063,0.7595372401530944,32.41232262554603,79.49185093460699,-151.43470139595757,0.537109375,0.500244140625,0.41558837890625,-0.53717041015625,30.534646159004,79.69375048514894,-64.33883065159146,2.9178198192433737,,,,3,0,3,3
1788945656.3695822,744581061.0,-9.4921875,0.9609375,1.4609375,-0.080078125,0.18359375,-0.076171875,25.0,-5.0,-29.0,25.0,-5.0,-29.0,-0.009239667426951233,-0.6482332158441656,0.056456233298414156,0.759289813012084,32.52789410938191,79.53009136627082,-151.3147369422777,0.5367431640625,0.5003662109375,0.41650390625,-0.5367431640625,30.584788798737595,79.8168148586951,-64.2535084060603,2.9052390843526212,,,,3,0,3,3
1788945656.365647,744584568.0,-9.5234375,0.921875,1.3828125,-0.0859375,0.173828125,-0.076171875,25.0,-5.0,-29.0,25.0,-5.0,-29.0,-0.009240333110220897,-0.6485285150742888,0.05637457339694881,0.7590436672905335,32.6162954613296,79.57135112158225,-151.2195068326361,0.5367431640625,0.5003662109375,0.41650390625,-0.5367431640625,30.584788798737595,79.8168148586951,-64.2535084060603,2.894765143117304,,,,3,0,3,3
1788945656.3695822,744588221.0,-9.52734375,0.84765625,1.34765625,-0.0859375,0.173828125,-0.076171875,24.625,-4.0625,-29.25,24.625,-4.0625,-29.25,-0.009203384955836558,-0.648859858567804,0.05605744412854032,0.7587843861087942,32.60349060268924,79.62737969298271,-151.2093322655279,0.5367431640625,0.5003662109375,0.41650390625,-0.5367431640625,30.584788798737595,79.8168148586951,-64.2535084060603,2.857478056512746,,,,3,0,3,3
1788945656.3695822,744592304.0,-9.6015625,0.84765625,1.34765625,-0.099609375,0.166015625,-0.076171875,24.625,-4.0625,-29.25,24.625,-4.0625,-29.25,-0.009178663597181632,-0.6492190519529306,0.05568699882743337,0.7585046689885973,32.58318131364921,79.68849024897419,-151.20131473616874,0.536376953125,0.50042724609375,0.41741943359375,-0.53631591796875,30.598194102404637,79.91940720971449,-64.1747836391549,2.9424708372582655,,,,3,0,3,3
1788945656.386228,744595886.0,-9.6015625,0.80859375,1.26953125,-0.1015625,0.1640625,-0.080078125,23.8125,-4.25,-30.375,23.8125,-4.25,-30.375,-0.009153882716876869,-0.6495402593778438,0.05539799888924197,0.7582510927111393,32.58301779497994,79.7417319453547,-151.17981295921575,0.536376953125,0.50042724609375,0.41741943359375,-0.53631591796875,30.598194102404637,79.91940720971449,-64.1747836391549,2.909473718801973,,,,3,0,3,3
1788945656.384275,744604546.0,-9.71875,0.80859375,1.26953125,-0.08984375,0.15234375,-0.08203125,23.8125,-4.25,-30.375,23.8125,-4.25,-30.375,-0.009051022755796759,-0.6502791786839717,0.05474048780463371,0.7576665148679095,32.57032767659984,79.86588970074438,-151.14699634732006,0.5361328125,0.5003662109375,0.4183349609375,-0.535888671875,30.569277992728797,80.0130791673511,-64.12924174896901,2.9389879040006663,,,,3,0,3,3
1788945656.386228,744608452.0,-9.72265625,0.80859375,1.19140625,-0.080078125,0.150390625,-0.078125,23.8125,-4.25,-30.375,23.8125,-4.25,-30.375,-0.00901110691986442,-0.6506126313648266,0.05448632211444489,0.7573989995788588,32.58647594153626,79.92013537805843,-151.11325557173242,0.5361328125,0.5003662109375,0.4183349609375,-0.535888671875,30.569277992728797,80.0130791673511,-64.12924174896901,2.910439456099808,,,,3,0,3,3
1788945656.4024618,744611958.0,-9.7578125,0.76953125,1.1171875,-0.068359375,0.142578125,-0.08203125,23.8125,-4.25,-30.375,23.8125,-4.25,-30.375,-0.00895490815817878,-0.6509019987596248,0.054269041589916495,0.7571666056790379,32.594498428216035,79.96798339328062,-151.09198793109198,0.53582763671875,0.5003662109375,0.419189453125,-0.5355224609375,30.549517207839695,80.11065347421317,-64.09409370998148,2.956423503136926,,,,3,0,3,3
1788945656.4024618,744615741.0,-9.72265625,0.73046875,1.15625,-0.072265625,0.126953125,-0.078125,27.5,-4.375,-36.0625,27.5,-4.375,-36.0625,-0.008896517257945555,-0.651182557191638,0.05397332531997008,0.7569471641692985,32.56211139818107,80.01766060769754,-151.1049217473616,0.53582763671875,0.5003662109375,0.419189453125,-0.5355224609375,30.549517207839695,80.11065347421317,-64.09409370998148,2.9226997342830447,,,,3,0,2,3
1788945656.4024618,744620124.0,-9.640625,0.73046875,1.15625,-0.080078125,0.111328125,-0.087890625,27.5,-4.375,-36.0625,27.5,-4.375,-36.0625,-0.008822174420691383,-0.6514824835422851,0.05360411673631214,0.7567161565243516,32.49853496494829,80.0732110957705,-151.1443486621904,0.5355224609375,0.50030517578125,0.419921875,-0.5352783203125,30.46347688740808,80.18396352625045,-64.12118202510882,3.0189107249378266,,,,3,0,2,3
1788945656.4005086,744623177.0,-9.60546875,0.65625,1.23046875,-0.080078125,0.111328125,-0.087890625,27.5,-4.375,-36.0625,27.5,-4.375,-36.0625,-0.008750094703737422,-0.6516766405033079,0.05332056710134339,0.7565698310063581,32.42775672879829,80.11177920237145,-151.1978128624543,0.5355224609375,0.50030517578125,0.419921875,-0.5352783203125,30.46347688740808,80.18396352625045,-64.12118202510882,2.986781495731326,,,,3,0,2,3
1788945656.41905,744627660.0,-9.56640625,0.65625,1.23046875,-0.0546875,0.107421875,-0.0859375,28.25,-5.25,-35.3125,28.25,-5.25,-35.3125,-0.008581157202084248,-0.6519702220049631,0.05304516268756931,0.7563381545812176,32.36903026416467,80.1669429434284,-151.24772568758414,0.5355224609375,0.50030517578125,0.419921875,-0.5352783203125,30.46347688740808,80.18396352625045,-64.12118202510882,2.952103458222793,,,,3,0,2,3
1788945656.4203775,744631166.0,-9.5234375,0.65625,1.19140625,-0.044921875,0.1015625,-0.078125,28.25,-5.25,-35.3125,28.25,-5.25,-35.3125,-0.00845763957258736,-0.6521953369762765,0.05286237468442614,0.7561582374754536,32.33911711678807,80.20797189115886,-151.27270506578822,0.5352783203125,0.50030517578125,0.42059326171875,-0.53509521484375,30.421009933004513,80.29566568733344,-64.1788352956672,2.7336541910145096,,,,3,0,2,3
1788945656.4184244,744635949.0,-9.5234375,0.65625,1.19140625,-0.041015625,0.095703125,-0.076171875,28.25,-5.25,-35.3125,28.25,-5.25,-35.3125,-0.008284927597844705,-0.6524913819501154,0.05262686781170606,0.7559211395640792,32.29794182556302,80.2621803816971,-151.3086252241034,0.5352783203125,0.50030517578125,0.42059326171875,-0.53509521484375,30.421009933004513,80.29566568733344,-64.1788352956672,2.700446848576733,,,,3,0,2,3
1788945656.4203775,744643132.0,-9.4140625,0.578125,1.26953125,-0.033203125,0.0859375,-0.068359375,28.5,-5.9375,-33.6875,28.5,-5.9375,-33.6875,-0.007925003339866447,-0.6528475671183525,0.05246403085925163,0.7556287275479346,32.24756156489714,80.32919599399793,-151.37486107986166,0.53497314453125,0.500244140625,0.421142578125,-0.53497314453125,30.307756326600682,80.34459149590842,-64.24070793295814,2.8530035668375615,,,,3,0,2,3
1788945656.439065,744647791.0,-9.4140625,0.578125,1.30859375,-0.03515625,0.078125,-0.064453125,24.5,-4.75,-30.375,24.5,-4.75,-30.375,-0.007665688608520695,-0.6530419941590304,0.05225035207059961,0.755478187502096,32.136837758877626,80.3728474329313,-151.489181137781,0.53497314453125,0.500244140625,0.421142578125,-0.53497314453125,30.307756326600682,80.34459149590842,-64.24070793295814,2.8204234251395968,,,,3,0,3,3
1788945656.4429007,744651497.0,-9.41796875,0.6171875,1.34765625,-0.025390625,0.07421875,-0.052734375,24.5,-4.75,-30.375,24.5,-4.75,-30.375,-0.0074464781541193886,-0.6531622192175429,0.05213684989828569,0.755384282489779,32.054380055755246,80.40152545190695,-151.5801623440577,0.53472900390625,0.500244140625,0.42156982421875,-0.53485107421875,30.255099436837803,80.38881288035364,-64.26038507581625,2.907499713519343,,,,3,0,3,3
1788945656.4429007,744654880.0,-9.37890625,0.6171875,1.34765625,-0.021484375,0.0703125,-0.048828125,24.8125,-4.75,-30.3125,24.8125,-4.75,-30.3125,-0.0072455258382167174,-0.6532598938388832,0.05204359806189665,0.7553082002452448,31.977812137200882,80.42576924400021,-151.66542753415345,0.53472900390625,0.500244140625,0.42156982421875,-0.53485107421875,30.255099436837803,80.38881288035364,-64.26038507581625,2.8904817607176847,,,,3,0,3,3
1788945656.4429007,744659233.0,-9.37890625,0.578125,1.34765625,-0.021484375,0.0703125,-0.048828125,24.8125,-4.75,-30.3125,24.8125,-4.75,-30.3125,-0.006990443712110905,-0.6533848307565471,0.05189520359633638,0.755212741204517,31.866107471678642,80.45772586461624,-151.78572642172952,0.53472900390625,0.500244140625,0.42156982421875,-0.53485107421875,30.255099436837803,80.38881288035364,-64.26038507581625,2.8659609068292475,,,,3,0,3,3
1788945656.4530056,744662739.0,-9.41796875,0.578125,1.34765625,-0.029296875,0.05859375,-0.037109375,24.8125,-4.75,-30.3125,24.8125,-4.75,-30.3125,-0.0068076744007213134,-0.6534706041034631,0.05178361184173997,0.7551478548513083,31.78138190686136,80.48030100914933,-151.87618230294754,0.5345458984375,0.500244140625,0.4219970703125,-0.53472900390625,30.220272792910116,80.45086804274402,-64.29033173827803,2.80194106914887,,,,3,0,3,3
1788945656.457766,744666922.0,-9.375,0.6171875,1.3828125,-0.033203125,0.056640625,-0.029296875,24.8125,-4.25,-30.25,24.8125,-4.25,-30.25,-0.006659853598137276,-0.6535342529155452,0.051564586193931894,0.7551090782574528,31.647934341442642,80.5023844778757,-152.00377878627882,0.5345458984375,0.500244140625,0.4219970703125,-0.53472900390625,30.220272792910116,80.45086804274402,-64.29033173827803,2.772746756923861,,,,3,0,3,3
1788945656.46178,744670429.0,-9.375,0.578125,1.3828125,-0.02734375,0.056640625,-0.0234375,24.8125,-4.25,-30.25,24.8125,-4.25,-30.25,-0.006536649035497622,-0.6535908985580223,0.0513926726733496,0.7550728459804349,31.54303448722038,80.52085375330503,-152.10466741446268,0.534423828125,0.500244140625,0.42230224609375,-0.53460693359375,30.206722600507806,80.48582485973073,-64.28457452571426,2.780598278853155,,,,3,0,3,3
1788945656.4637861,744674988.0,-9.375,0.6171875,1.3828125,-0.02734375,0.060546875,-0.013671875,24.625,-4.125,-29.3125,24.625,-4.125,-29.3125,-0.006396697987977111,-0.6536615149033693,0.05118791531302368,0.7550268230433866,31.421657621758243,80.5429637373994,-152.220714219498,0.534423828125,0.500244140625,0.42230224609375,-0.53460693359375,30.206722600507806,80.48582485973073,-64.28457452571426,2.753381397840736,,,,3,0,3,3
1788945656.4692101,744678364.0,-9.453125,0.65625,1.3828125,-0.02734375,0.060546875,-0.013671875,24.625,-4.125,-29.3125,24.625,-4.125,-29.3125,-0.006286150086351151,-0.6537124659234486,0.0510456637033662,0.7549932691292411,31.332683665590203,80.55907915554826,-152.30706687960003,0.534423828125,0.500244140625,0.42230224609375,-0.53460693359375,30.206722600507806,80.48582485973073,-64.28457452571426,2.73404892099121,,,,3,0,3,3
1788945656.4692101,744682071.0,-9.45703125,0.65625,1.421875,-0.0234375,0.046875,-0.001953125,24.625,-4.125,-29.3125,24.625,-4.125,-29.3125,-0.006198543691202265,-0.6537195311596962,0.05092739516151956,0.7549958629413261,31.244228072529175,80.5676302469413,-152.39300584300898,0.53436279296875,0.500244140625,0.422607421875,-0.534423828125,30.227050934596992,80.5175609908862,-64.23802852931011,2.745659912137653,,,,3,0,3,3
1788945656.4692101,744686054.0,-9.4140625,0.65625,1.3828125,-0.017578125,0.05078125,0.001953125,24.9375,-3.125,-29.1875,24.9375,-3.125,-29.1875,-0.0061710260425374645,-0.6537854078817792,0.05071823499914547,0.7549531240527516,31.161396819861448,80.58476744280672,-152.4610167995135,0.53436279296875,0.500244140625,0.422607421875,-0.534423828125,30.227050934596992,80.5175609908862,-64.23802852931011,2.721900181476566,,,,3,0,3,3
1788945656.4692101,744690736.0,-9.45703125,0.65625,1.421875,-0.01953125,0.046875,0.01171875,24.9375,-3.125,-29.1875,24.9375,-3.125,-29.1875,-0.006160915406566164,-0.653838069550619,0.05049229696016639,0.7549227443092169,31.070991527135675,80.60004927105386,-152.53382643445582,0.53436279296875,0.50030517578125,0.42279052734375,-0.53424072265625,30.31015553875562,80.54462540112502,-64.1471321924102,2.652120195016344,,,,3,0,3,3
1788945656.4835935,744694419.0,-9.45703125,0.65625,1.421875,-0.021484375,0.046875,0.015625,26.1875,-4.6875,-29.4375,26.1875,-4.6875,-29.4375,-0.00609135372461311,-0.6538288460386117,0.050539056363642726,0.7549281682911902,31.062346700263923,80.59991653875056,-152.55193341896972,0.53436279296875,0.50030517578125,0.42279052734375,-0.53424072265625,30.31015553875562,80.54462540112502,-64.1471321924102,2.65495872309419,,,,3,0,3,3
1788945656.4855466,744698496.0,-9.41796875,0.69140625,1.3828125,-0.021484375,0.046875,0.015625,26.1875,-4.6875,-29.4375,26.1875,-4.6875,-29.4375,-0.006024356247575637,-0.6538389911069505,0.050658201198365733,0.7549119335998029,31.098786414422364,80.59971457783881,-152.53063550935255,0.53436279296875,0.50030517578125,0.42279052734375,-0.53424072265625,30.31015553875562,80.54462540112502,-64.1471321924102,2.6661117891408046,,,,3,0,3,3
1788945656.4855466,744702002.0,-9.4921875,0.76953125,1.30859375,-0.01171875,0.048828125,0.017578125,26.1875,-4.6875,-29.4375,26.1875,-4.6875,-29.4375,-0.006035506423989435,-0.6539309287423289,0.05081737007338359,0.754821507374575,31.22242871167348,80.60585324495254,-152.41901742953434,0.53436279296875,0.50042724609375,0.42291259765625,-0.53399658203125,30.451870976003434,80.55039590867786,-63.9740294933964,2.763936218954337,,,,3,0,3,3
1788945656.4855466,744705585.0,-9.4921875,0.80859375,1.30859375,-0.015625,0.044921875,0.021484375,28.625,-2.25,-34.25,28.625,-2.25,-34.25,-0.006088744572766369,-0.6540095153595734,0.05064308479794288,0.7547647043753516,31.193836593852296,80.62027365083155,-152.42906480907416,0.53436279296875,0.50042724609375,0.42291259765625,-0.53399658203125,30.451870976003434,80.55039590867786,-63.9740294933964,2.746776882924485,,,,3,0,2,3
1788945656.5016482,744709968.0,-9.52734375,0.76953125,1.30859375,-0.017578125,0.04296875,0.025390625,28.625,-2.25,-34.25,28.625,-2.25,-34.25,-0.006151820954327627,-0.6541023653455582,0.05043245621600104,0.7546978323198715,31.157759174276936,80.63747348572274,-152.44283446318576,0.534423828125,0.50054931640625,0.42303466796875,-0.53375244140625,30.6125309771862,80.57417760599965,-63.81044059094479,2.6455336449521614,,,,3,0,2,3
1788945656.5008974,744714297.0,-9.52734375,0.80859375,1.3828125,-0.017578125,0.04296875,0.025390625,28.625,-2.25,-34.25,28.625,-2.25,-34.25,-0.006225562904245828,-0.6541696778566976,0.050226496293077474,0.7546526181028669,31.11650402159677,80.65071558962906,-152.46130494315778,0.534423828125,0.50054931640625,0.42303466796875,-0.53375244140625,30.6125309771862,80.57417760599965,-63.81044059094479,2.6250103912166725,,,,3,0,2,3
1788945656.4960797,744717704.0,-9.5234375,0.80859375,1.34765625,-0.001953125,0.041015625,0.0234375,28.3125,-3.125,-36.4375,28.3125,-3.125,-36.4375,-0.0062697047309273855,-0.6542269988269359,0.05008093340750734,0.754612234805082,31.088584803572928,80.66167878421399,-152.47376602678742,0.534423828125,0.50054931640625,0.42303466796875,-0.53375244140625,30.6125309771862,80.57417760599965,-63.81044059094479,2.610331947792553,,,,3,0,2,3
1788945656.5028505,744721610.0,-9.52734375,0.84765625,1.34765625,0.00390625,0.0390625,0.0234375,28.3125,-3.125,-36.4375,28.3125,-3.125,-36.4375,-0.006331745787148417,-0.6542888934007748,0.049924887512739144,0.7545683922445446,31.06464508227084,80.6729153277218,-152.47993874885702,0.534423828125,0.50067138671875,0.423095703125,-0.53363037109375,30.7253656850102,80.59986137257519,-63.71544179303835,2.4743046393125456,,,,3,0,2,3
1788945656.518791,744725593.0,-9.52734375,0.84765625,1.34765625,-0.005859375,0.04296875,0.01953125,28.625,-5.1875,-34.9375,28.625,-5.1875,-34.9375,-0.006398505759526034,-0.6543377697355065,0.050137833124099036,0.7545113252372218,31.217923469139283,80.66927043606383,-152.33855984605137,0.534423828125,0.50067138671875,0.423095703125,-0.53363037109375,30.7253656850102,80.59986137257519,-63.71544179303835,2.501730207021526,,,,3,0,2,3
1788945656.5191932,744729099.0,-9.5234375,0.8828125,1.34765625,0.00390625,0.03125,0.021484375,28.625,-5.1875,-34.9375,28.625,-5.1875,-34.9375,-0.006463442239504079,-0.6543638748214132,0.050337779358665825,0.7544748181432969,31.353568660229186,80.66309492854299,-152.21391165937774,0.534423828125,0.50079345703125,0.42315673828125,-0.533447265625,30.854066922626235,80.60411477146324,-63.56916637743033,2.5730138548567485,,,,3,0,2,3
1788945656.51724,744733729.0,-9.5234375,0.9609375,1.23046875,0.00390625,0.03125,0.021484375,28.625,-5.1875,-34.9375,28.625,-5.1875,-34.9375,-0.006566958897619777,-0.6544667611180995,0.05056435322892651,0.7543695247191271,31.55265175110479,80.66451851748073,-152.02483413030717,0.534423828125,0.50079345703125,0.42315673828125,-0.533447265625,30.854066922626235,80.60411477146324,-63.56916637743033,2.6027348759065982,,,,3,0,2,3
1788945656.5191932,744737811.0,-9.52734375,0.9609375,1.26953125,0.00390625,0.029296875,0.005859375,27.5625,-1.8125,-34.75,27.5625,-1.8125,-34.75,-0.006623084982953693,-0.6545440051269644,0.05038310716328957,0.754314140534455,31.5216518607896,80.67892744869215,-152.03649024357668,0.534423828125,0.50079345703125,0.42315673828125,-0.533447265625,30.854066922626235,80.60411477146324,-63.56916637743033,2.5842056539437306,,,,3,0,2,3
1788945656.5191932,744741518.0,-9.5234375,1.0,1.34765625,0.01171875,0.01953125,0.00390625,27.5625,-1.8125,-34.75,27.5625,-1.8125,-34.75,-0.00667396721959834,-0.6545774157344068,0.050230571741199784,0.7542948724700238,31.482365120576198,80.68674437866338,-152.05921205209702,0.53436279296875,0.50091552734375,0.42315673828125,-0.53338623046875,30.93452938041282,80.61023548468522,-63.491747955473265,2.579227206598471,,,,3,0,2,3
1788945656.5353894,744745500.0,-9.52734375,1.0,1.30859375,0.0078125,0.0234375,-0.005859375,24.4375,-3.3125,-30.1875,24.4375,-3.3125,-30.1875,-0.0068530626790556815,-0.6546372679128744,0.05022729283893355,0.754241540917468,31.579157162034434,80.68763645223736,-151.9475842641026,0.53436279296875,0.50091552734375,0.42315673828125,-0.53338623046875,30.93452938041282,80.61023548468522,-63.491747955473265,2.58543090406074,,,,3,0,3,3
1788945656.5353894,744749207.0,-9.4921875,1.0,1.30859375,-0.009765625,0.021484375,-0.015625,24.4375,-3.3125,-30.1875,24.4375,-3.3125,-30.1875,-0.007029066391170345,-0.6546839747942758,0.05018921226553919,0.7542019148380633,31.65160259351289,80.68814151715026,-151.85772500686713,0.5343017578125,0.5009765625,0.4232177734375,-0.5333251953125,30.972455426640185,80.61639157323863,-63.44516208943496,2.6315389512982934,,,,3,0,3,3
1788945656.5353894,744753060.0,-9.4921875,1.0,1.3828125,-0.009765625,0.021484375,-0.015625,24.4375,-3.3125,-30.1875,24.4375,-3.3125,-30.1875,-0.007175276422700111,-0.6546602465008314,0.05014466472629914,0.7542240977714881,31.67639559971708,80.68078472497527,-151.81743506979615,0.5343017578125,0.5009765625,0.4232177734375,-0.5333251953125,30.972455426640185,80.61639157323863,-63.44516208943496,2.6318981028180213,,,,3,0,3,3
1788945656.5353894,744756843.0,-9.453125,1.0390625,1.3828125,0.0,0.0234375,-0.021484375,25.1875,-4.25,-29.875,25.1875,-4.25,-29.875,-0.007239822746443641,-0.6546573264323794,0.05027272964678436,0.75421749023002,31.76308686881658,80.67322176058029,-151.73592892280266,0.5343017578125,0.5009765625,0.4232177734375,-0.5333251953125,30.972455426640185,80.61639157323863,-63.44516208943496,2.6484370637164854,,,,3,0,3,3
1788945656.5536494,744760749.0,-9.453125,1.0390625,1.3828125,-0.009765625,0.015625,-0.025390625,25.1875,-4.25,-29.875,25.1875,-4.25,-29.875,-0.007312749896505719,-0.6546424987536371,0.050385123674224416,0.7542221568124863,31.839738117490256,80.66430521225321,-151.6625099813806,0.53424072265625,0.50091552734375,0.42340087890625,-0.5333251953125,30.909367107505897,80.6441515270991,-63.51180784236655,2.6131733490779085,,,,3,0,3,3
1788945656.5536494,744764532.0,-9.45703125,1.0390625,1.34765625,-0.013671875,0.015625,-0.037109375,25.1875,-3.6875,-29.5,25.1875,-3.6875,-29.5,-0.007425849969822536,-0.6546390215540892,0.050428101025372915,0.7542211975527506,31.90345158510665,80.65776037145493,-151.59310932586806,0.53424072265625,0.50091552734375,0.42340087890625,-0.5333251953125,30.909367107505897,80.6441515270991,-63.51180784236655,2.622381465355343,,,,3,0,3,3
1788945656.562389,744769614.0,-9.453125,1.0390625,1.30859375,-0.02734375,0.01171875,-0.041015625,25.1875,-3.6875,-29.5,25.1875,-3.6875,-29.5,-0.007597697806265021,-0.6546668995571688,0.0504586737573015,0.7541932430451115,31.998693236063446,80.6534038192815,-151.48638772180095,0.5341796875,0.5008544921875,0.423583984375,-0.5333251953125,30.846056748566895,80.67197755371215,-63.57876103142824,2.5817644688304395,,,,3,0,3,3
1788945656.5642593,744771991.0,-9.49609375,1.0390625,1.34765625,-0.02734375,0.01171875,-0.041015625,25.1875,-3.6875,-29.5,25.1875,-3.6875,-29.5,-0.007677359768846824,-0.6546630087025473,0.050469274089811625,0.7541951044367469,32.03320237741645,80.64930039754104,-151.44627155350076,0.5341796875,0.5008544921875,0.423583984375,-0.5333251953125,30.846056748566895,80.67197755371215,-63.57876103142824,2.586214482959037,,,,3,0,3,3
1788945656.5693026,744776750.0,-9.45703125,1.0,1.34765625,-0.025390625,0.015625,-0.046875,24.6875,-4.5,-29.0,24.6875,-4.5,-29.0,-0.007720202716108709,-0.6546702624848316,0.050570684034874136,0.7541815774760803,32.10267817196285,80.64483697635359,-151.38157050037884,0.5341796875,0.5008544921875,0.423583984375,-0.5333251953125,30.846056748566895,80.67197755371215,-63.57876103142824,2.5997197290445486,,,,3,0,3,3
1788945656.5693026,744780657.0,-9.453125,1.0,1.3828125,-0.021484375,0.01171875,-0.056640625,24.6875,-4.5,-29.0,24.6875,-4.5,-29.0,-0.0077342849186026715,-0.6546552328597269,0.0506419239486532,0.7541896992567277,32.13575459046578,80.63970549882876,-151.35315590325965,0.53411865234375,0.50067138671875,0.423828125,-0.5333251953125,30.697650416390548,80.67685115742115,-63.685432175915345,2.7465964725214853,,,,3,0,3,3
1788945656.5736246,744784063.0,-9.37890625,0.9609375,1.421875,-0.021484375,0.013671875,-0.0625,24.6875,-4.5,-29.0,24.6875,-4.5,-29.0,-0.0077288744504029104,-0.6546249261441086,0.05068479924226715,0.7542131805373872,32.140258490749886,80.63439250768687,-151.35259270128995,0.53411865234375,0.50067138671875,0.423828125,-0.5333251953125,30.697650416390548,80.67685115742115,-63.685432175915345,2.7511270113353445,,,,3,0,3,3
1788945656.5775597,744788016.0,-9.37890625,0.921875,1.3828125,-0.021484375,0.013671875,-0.0625,25.3125,-4.0625,-28.875,25.3125,-4.0625,-28.875,-0.007745095970278854,-0.6545769103676844,0.0507031374721996,0.7542534545843214,32.13298601098417,80.6267793951704,-151.36005637211437,0.53411865234375,0.50067138671875,0.423828125,-0.5333251953125,30.697650416390548,80.67685115742115,-63.685432175915345,2.7537564454634578,,,,3,0,3,3
1788945656.5810685,744793599.0,-9.41796875,0.8828125,1.34765625,-0.033203125,0.0078125,-0.064453125,25.3125,-4.0625,-28.875,25.3125,-4.0625,-28.875,-0.007779535882456668,-0.6545216642211493,0.050741055971349924,0.7542984920610295,32.13893153039431,80.61677051026219,-151.35441882929285,0.53399658203125,0.50048828125,0.424072265625,-0.53338623046875,30.514337293839645,80.68500757819066,-63.83402972361883,2.893792666331582,,,,3,0,3,3
1788945656.586993,744796205.0,-9.4140625,0.8828125,1.3828125,-0.03125,0.015625,-0.0703125,25.3125,-4.0625,-28.875,25.3125,-4.0625,-28.875,-0.007777392070711299,-0.6544848611581536,0.05072909327549488,0.754331252025804,32.11508897012866,80.61247157452419,-151.37747349331946,0.53399658203125,0.50048828125,0.424072265625,-0.53338623046875,30.514337293839645,80.68500757819066,-63.83402972361883,2.892437026534062,,,,3,0,3,3
1788945656.586993,744799811.0,-9.4140625,0.80859375,1.3828125,-0.033203125,0.017578125,-0.068359375,25.3125,-4.0625,-28.875,25.3125,-4.0625,-28.875,-0.007701887808194374,-0.654417454520442,0.05064011454624203,0.7543964839140745,32.01111003961499,80.60991294526217,-151.48036282929687,0.533935546875,0.50030517578125,0.42437744140625,-0.533447265625,30.347623948356674,80.73464701081167,-64.01712500185634,2.745616707057723,,,,3,0,3,3
1788945656.5830579,744804094.0,-9.375,0.80859375,1.30859375,-0.029296875,0.015625,-0.06640625,25.3125,-4.0625,-28.875,25.3125,-4.0625,-28.875,-0.007580190966377856,-0.6544745892825232,0.050690794087077086,0.7543447461759163,32.014903554163894,80.62046793782363,-151.49056375720102,0.533935546875,0.50030517578125,0.42437744140625,-0.533447265625,30.347623948356674,80.73464701081167,-64.01712500185634,2.746558874358641,,,,3,0,3,3
1788945656.586993,744807747.0,-9.4140625,0.76953125,1.30859375,-0.029296875,0.015625,-0.06640625,28.375,-2.1875,-33.9375,28.375,-2.1875,-33.9375,-0.007516000285028548,-0.6545155384129461,0.05038947522198724,0.7543300474610432,31.862408910981713,80.63932203192672,-151.62372372607288,0.533935546875,0.50030517578125,0.42437744140625,-0.533447265625,30.347623948356674,80.73464701081167,-64.01712500185634,2.709443072665429,,,,3,0,3,3
1788945656.6031747,744811454.0,-9.41796875,0.69140625,1.26953125,-0.044921875,0.0078125,-0.06640625,28.375,-2.1875,-33.9375,28.375,-2.1875,-33.9375,-0.007454728132408178,-0.6545547564025103,0.05006372608725771,0.7543183155867172,31.697788232350646,80.6586601360042,-151.76678481620797,0.5338134765625,0.50006103515625,0.4246826171875,-0.53350830078125,30.119345525469264,80.74275572059007,-64.19927097763858,2.838147116277968,,,,3,0,3,3
1788945656.6031747,744815636.0,-9.45703125,0.69140625,1.26953125,-0.03515625,0.0078125,-0.064453125,28.1875,-1.4375,-34.9375,28.1875,-1.4375,-34.9375,-0.007385423317183133,-0.6545984029651508,0.04971321880405326,0.7543043034704497,31.519325229811432,80.67972849169377,-151.9223244574132,0.5338134765625,0.50006103515625,0.4246826171875,-0.53350830078125,30.119345525469264,80.74275572059007,-64.19927097763858,2.7969901823786483,,,,3,0,2,3
1788945656.611246,744819919.0,-9.453125,0.6171875,1.26953125,-0.03515625,0.00390625,-0.06640625,28.1875,-1.4375,-34.9375,28.1875,-1.4375,-34.9375,-0.007299835141832613,-0.6546358210364015,0.049352575948124,0.754296345921272,31.325846269920262,80.70091040526796,-152.0933807346482,0.53375244140625,0.49981689453125,0.42498779296875,-0.5335693359375,29.908912803663863,80.76930881445901,-64.39260870076131,2.7643776578325667,,,,3,0,2,3
1788945656.609293,744823572.0,-9.45703125,0.578125,1.23046875,-0.03515625,0.00390625,-0.06640625,28.1875,-1.4375,-34.9375,28.1875,-1.4375,-34.9375,-0.007222577511710166,-0.6546737906024623,0.04904670481600057,0.7542840864150475,31.16214865712186,80.71981886030053,-152.2384391500127,0.53375244140625,0.49981689453125,0.42498779296875,-0.5335693359375,29.908912803663863,80.76930881445901,-64.39260870076131,2.7273453401529313,,,,3,0,2,3
1788945656.6187477,744827655.0,-9.49609375,0.578125,1.23046875,-0.02734375,-0.00390625,-0.05859375,27.9375,-2.8125,-34.8125,27.9375,-2.8125,-34.8125,-0.007116287075265784,-0.6547121175975228,0.04873526106936014,0.7542720171514594,30.983671286468883,80.74004782408069,-152.40018284605296,0.53375244140625,0.49981689453125,0.42498779296875,-0.5335693359375,29.908912803663863,80.76930881445901,-64.39260870076131,2.6885507165227014,,,,3,0,2,3
1788945656.6205566,744831561.0,-9.5234375,0.5390625,1.23046875,-0.025390625,-0.009765625,-0.046875,27.9375,-2.8125,-34.8125,27.9375,-2.8125,-34.8125,-0.0070230646259123895,-0.6547384893567619,0.04845677183043595,0.754267942035096,30.820599551423268,80.7569565501242,-152.54814677886728,0.53369140625,0.4996337890625,0.4251708984375,-0.53369140625,29.72699533540919,80.79439804323667,-64.5827748888273,2.593935369448561,,,,3,0,2,3
1788945656.6205566,744835344.0,-9.5234375,0.5390625,1.23046875,-0.025390625,-0.01953125,-0.0390625,28.4375,-5.5625,-34.3125,28.4375,-5.5625,-34.3125,-0.006865109128400717,-0.6547745644214436,0.048432420901142394,0.7542396440581856,30.76162740488404,80.76873732588022,-152.6179566455944,0.53369140625,0.4996337890625,0.4251708984375,-0.53369140625,29.72699533540919,80.79439804323667,-64.5827748888273,2.584820854445091,,,,3,0,2,3
1788945656.6318426,744839050.0,-9.49609375,0.5,1.19140625,-0.015625,-0.025390625,-0.033203125,28.4375,-5.5625,-34.3125,28.4375,-5.5625,-34.3125,-0.0067102479603535475,-0.6548101651619872,0.04840536009084173,0.7542118676388734,30.70218122587243,80.78042033352507,-152.68776862500937,0.53369140625,0.49945068359375,0.42529296875,-0.53375244140625,29.58167033615014,80.79290118333614,-64.70708054516176,2.6372534365112656,,,,3,0,2,3
1788945656.6340563,744844080.0,-9.49609375,0.5390625,1.19140625,-0.015625,-0.025390625,-0.033203125,28.4375,-5.5625,-34.3125,28.4375,-5.5625,-34.3125,-0.0065182302021626806,-0.6548595319446123,0.04839866078729778,0.7541711183347657,30.64401982061435,80.79465431486769,-152.76096737051262,0.53369140625,0.49945068359375,0.42529296875,-0.53375244140625,29.58167033615014,80.79290118333614,-64.70708054516176,2.629283993264777,,,,3,0,2,3
1788945656.6385999,744846686.0,-9.49609375,0.5,1.19140625,0.0,-0.029296875,-0.0234375,24.9375,-2.6875,-29.0625,24.9375,-2.6875,-29.0625,-0.006447544342395348,-0.6548629560620832,0.04826493357391908,0.7541773227409376,30.550375207470353,80.80248604342373,-152.84946634937455,0.53369140625,0.49945068359375,0.42529296875,-0.53375244140625,29.58167033615014,80.79290118333614,-64.70708054516176,2.6113077670443534,,,,3,0,3,3
1788945656.6457555,744850593.0,-9.49609375,0.5390625,1.19140625,-0.00390625,-0.04296875,-0.0234375,24.9375,-2.6875,-29.0625,24.9375,-2.6875,-29.0625,-0.006350767840304952,-0.6548507306105097,0.048058791935489856,0.7542019231508373,30.402725916766038,80.81171706273533,-152.9881994578859,0.53369140625,0.499267578125,0.42529296875,-0.53387451171875,29.424214181046718,80.76659210074895,-64.83491310375379,2.7313848839912946,,,,3,0,3,3
1788945656.6457555,744855352.0,-9.5234375,0.578125,1.23046875,0.00390625,-0.048828125,-0.009765625,24.625,-3.5625,-28.875,24.625,-3.5625,-28.875,-0.006198005184330869,-0.6548422423146111,0.04789306555925155,0.7542211059652496,30.254000063489446,80.82214916721713,-153.13584624253136,0.53369140625,0.499267578125,0.42529296875,-0.53387451171875,29.424214181046718,80.76659210074895,-64.83491310375379,2.707816274124538,,,,3,0,3,3
1788945656.6525838,744859458.0,-9.52734375,0.578125,1.15625,0.013671875,-0.052734375,-0.0078125,24.625,-3.5625,-28.875,24.625,-3.5625,-28.875,-0.006078031535939785,-0.6548517982958731,0.047801235119820644,0.7542196110698319,30.163514413183417,80.83115741174008,-153.22859923078957,0.53375244140625,0.49908447265625,0.4251708984375,-0.5340576171875,29.27427550388236,80.73410615002196,-64.97561669778206,2.763984689647502,,,,3,0,3,3
1788945656.656283,744864441.0,-9.49609375,0.6171875,1.19140625,0.015625,-0.0625,-0.00390625,24.625,-3.5625,-28.875,24.625,-3.5625,-28.875,-0.005935882832906386,-0.6548438324188839,0.04769760471752589,0.7542342202142207,30.04999972199143,80.83904886125408,-153.34522764619635,0.53375244140625,0.49908447265625,0.4251708984375,-0.5340576171875,29.27427550388236,80.73410615002196,-64.97561669778206,2.748003834616065,,,,3,0,3,3
1788945656.660218,744866018.0,-9.5234375,0.578125,1.23046875,0.015625,-0.0625,-0.00390625,25.0625,-4.3125,-30.5625,25.0625,-4.3125,-30.5625,-0.005871214028965598,-0.6548384505359056,0.04770228498156023,0.7542391030390154,30.023556937730294,80.84062910290945,-153.37730640512052,0.53375244140625,0.49908447265625,0.4251708984375,-0.5340576171875,29.27427550388236,80.73410615002196,-64.97561669778206,2.7463051082675545,,,,3,0,3,3
1788945656.6642578,744870900.0,-9.5234375,0.65625,1.19140625,0.02734375,-0.06640625,0.001953125,25.0625,-4.3125,-30.5625,25.0625,-4.3125,-30.5625,-0.0057382422416937355,-0.6548304140141827,0.047815915526679804,0.7542399085704331,30.022816377130148,80.8407421581235,-153.3981013893827,0.53387451171875,0.49896240234375,0.42498779296875,-0.53424072265625,29.187633601769782,80.72010768198102,-65.09332479133721,2.6338059853665468,,,,3,0,3,3
1788945656.6629832,744878183.0,-9.56640625,0.73046875,1.26953125,0.041015625,-0.076171875,0.0078125,25.25,-1.6875,-28.9375,25.25,-1.6875,-28.9375,-0.005629266590965477,-0.6546751691781316,0.047590260722731086,0.7543897542408533,29.79539451846592,80.83174030688721,-153.61605590039755,0.53387451171875,0.49896240234375,0.42498779296875,-0.53424072265625,29.187633601769782,80.72010768198102,-65.09332479133721,2.6038540557614933,,,,3,0,3,3
1788945656.6699493,744881889.0,-9.5234375,0.69140625,1.26953125,0.041015625,-0.083984375,0.001953125,25.25,-1.6875,-28.9375,25.25,-1.6875,-28.9375,-0.005558467076579527,-0.6545847327052583,0.04746864459334301,0.7544764137687903,29.665089595641135,80.82638175630086,-153.7422409703175,0.53399658203125,0.49884033203125,0.4246826171875,-0.534423828125,29.1062268597421,80.65992819632261,-65.16184460780461,2.7120358926264037,,,,3,0,3,3
1788945656.6699493,744886249.0,-9.49609375,0.73046875,1.26953125,0.03515625,-0.095703125,0.0078125,25.5625,-3.125,-29.0,25.5625,-3.125,-29.0,-0.0054864789926210005,-0.6544933786526225,0.04734663343247463,0.7545638555819839,29.533856217321265,80.82091508907386,-153.86941926898106,0.53399658203125,0.49884033203125,0.4246826171875,-0.534423828125,29.1062268597421,80.65992819632261,-65.16184460780461,2.6961296716872285,,,,3,0,3,3
1788945656.6699493,744889855.0,-9.5234375,0.73046875,1.26953125,0.0390625,-0.095703125,0.00390625,25.5625,-3.125,-29.0,25.5625,-3.125,-29.0,-0.00541751887937708,-0.6544222392363301,0.04725077045392935,0.7546320613210183,29.42607103635427,80.81713769755916,-153.97502557978422,0.53411865234375,0.49871826171875,0.42437744140625,-0.53472900390625,28.99379867506942,80.64285703009517,-65.33257780895244,2.4827537988529214,,,,3,0,3,3
1788945656.6834686,744893985.0,-9.4921875,0.73046875,1.34765625,0.0390625,-0.095703125,0.00390625,25.5625,-3.125,-29.0,25.5625,-3.125,-29.0,-0.005339642852867556,-0.6542708399852734,0.0471156578391616,0.7547723305378594,29.2598932348368,80.80416755409004,-154.13657951336967,0.53411865234375,0.49871826171875,0.42437744140625,-0.53472900390625,28.99379867506942,80.64285703009517,-65.33257780895244,2.4633266139382526,,,,3,0,3,3
1788945656.6854217,744897591.0,-9.52734375,0.73046875,1.34765625,0.033203125,-0.095703125,0.017578125,25.1875,-3.1875,-29.4375,25.1875,-3.1875,-29.4375,-0.005296889385750166,-0.6541450345276175,0.047004316258849474,0.7548886083514145,29.131624402099035,80.7924957045179,-154.2592981693244,0.53411865234375,0.49871826171875,0.42437744140625,-0.53472900390625,28.99379867506942,80.64285703009517,-65.33257780895244,2.448226412651356,,,,3,0,3,3
1788945656.6831648,744901297.0,-9.45703125,0.76953125,1.34765625,0.041015625,-0.099609375,0.01953125,25.1875,-3.1875,-29.4375,25.1875,-3.1875,-29.4375,-0.005295157977845795,-0.6539990181660085,0.04690750177731145,0.7550211466024631,29.01903920346278,80.77607301901622,-154.3641897061949,0.5343017578125,0.49853515625,0.42401123046875,-0.53497314453125,28.878958842750624,80.57672460970747,-65.44381438879925,2.521566998772133,,,,3,0,3,3
1788945656.6854217,744905480.0,-9.45703125,0.80859375,1.421875,0.041015625,-0.099609375,0.017578125,28.1875,-2.9375,-35.4375,28.1875,-2.9375,-35.4375,-0.0052985846550054425,-0.6538023724402757,0.0468180825308402,0.7551969610242456,28.890963525244935,80.75236133165741,-154.4847709366046,0.5343017578125,0.49853515625,0.42401123046875,-0.53497314453125,28.878958842750624,80.57672460970747,-65.44381438879925,2.5105123195165167,,,,3,0,2,3
1788945656.702637,744909763.0,-9.49609375,0.80859375,1.421875,0.03515625,-0.099609375,0.013671875,28.1875,-2.9375,-35.4375,28.1875,-2.9375,-35.4375,-0.005303909994130852,-0.6536069059071794,0.04670659625597715,0.755373003856637,28.75376178596616,80.7294209170848,-154.61252718071518,0.53448486328125,0.4984130859375,0.423583984375,-0.5352783203125,28.79273086799959,80.53209306822748,-65.573365136775,2.3745244084697044,,,,3,0,2,3
1788945656.702637,744913339.0,-9.45703125,0.76953125,1.421875,0.03515625,-0.099609375,0.013671875,28.1875,-2.9375,-35.4375,28.1875,-2.9375,-35.4375,-0.005291557553062574,-0.6534460793477099,0.04660850895276778,0.7555182775399737,28.631389704356383,80.71132853162612,-154.72796955710714,0.53448486328125,0.4984130859375,0.423583984375,-0.5352783203125,28.79273086799959,80.53209306822748,-65.573365136775,2.3616300501720677,,,,3,0,2,3
1788945656.702637,744917499.0,-9.49609375,0.80859375,1.421875,0.033203125,-0.103515625,0.015625,27.25,-2.3125,-34.75,27.25,-2.3125,-34.75,-0.005295754152288092,-0.6532670716485317,0.04648737016147267,0.7556804963099027,28.497058706060947,80.69088627335232,-154.8521556020919,0.53448486328125,0.4984130859375,0.423583984375,-0.5352783203125,28.79273086799959,80.53209306822748,-65.573365136775,2.3468657742769112,,,,3,0,2,3
1788945656.702637,744921205.0,-9.49609375,0.80859375,1.421875,0.029296875,-0.1015625,0.015625,27.25,-2.3125,-34.75,27.25,-2.3125,-34.75,-0.005305280190040299,-0.6531117946286652,0.04637333293155743,0.7558216401452451,28.378926637996596,80.67319647502607,-154.96028014037353,0.53466796875,0.498291015625,0.42315673828125,-0.5355224609375,28.723441843965244,80.46644371284549,-65.6512238815153,2.384994135884727,,,,3,0,2,3
1788945656.7187884,744925188.0,-9.453125,0.76953125,1.4609375,0.029296875,-0.099609375,0.005859375,28.125,-4.9375,-36.3125,28.125,-4.9375,-36.3125,-0.0052798458173974735,-0.6528870573674931,0.04658399329070726,0.7560030060252747,28.3800992898803,80.63693524558829,-154.97839650748918,0.53466796875,0.498291015625,0.42315673828125,-0.5355224609375,28.723441843965244,80.46644371284549,-65.6512238815153,2.4063251351350434,,,,3,0,2,3
1788945656.7221239,744929771.0,-9.453125,0.80859375,1.4609375,0.037109375,-0.09765625,0.009765625,28.125,-4.9375,-36.3125,28.125,-4.9375,-36.3125,-0.005269073128054175,-0.65264096891046,0.046855029776828955,0.7561987891768933,28.408394878925222,80.59533337207542,-154.97312261654153,0.53485107421875,0.49810791015625,0.42279052734375,-0.53582763671875,28.597155236684483,80.42196732603614,-65.80975563469279,2.341183035702782,,,,3,0,2,3
1788945656.723494,744934754.0,-9.453125,0.76953125,1.4609375,0.025390625,-0.09765625,0.0078125,28.125,-4.9375,-36.3125,28.125,-4.9375,-36.3125,-0.005243791899684206,-0.6523646554084233,0.047117463713912094,0.7564210491740232,28.41408973166276,80.5504566867046,-154.99093985884844,0.53485107421875,0.49810791015625,0.42279052734375,-0.53582763671875,28.597155236684483,80.42196732603614,-65.80975563469279,2.3692538483608483,,,,3,0,2,3
1788945656.7274292,744936730.0,-9.4921875,0.80859375,1.3828125,0.025390625,-0.09765625,0.0078125,27.125,-5.0,-34.125,27.125,-5.0,-34.125,-0.005240604047887164,-0.6522902014267808,0.047239372058893246,0.7564776737745169,28.44234250406936,80.5365970617815,-154.97289668224298,0.53485107421875,0.49810791015625,0.42279052734375,-0.53582763671875,28.597155236684483,80.42196732603614,-65.80975563469279,2.3829984167231415,,,,3,0,2,3
1788945656.7274292,744940436.0,-9.4921875,0.76953125,1.5,0.0390625,-0.099609375,0.001953125,27.125,-5.0,-34.125,27.125,-5.0,-34.125,-0.0051898162753607245,-0.6520843862105226,0.04744954273974468,0.7566422932676069,28.44110334141751,80.5038681425299,-154.99544411249389,0.53497314453125,0.4979248046875,0.42242431640625,-0.5361328125,28.454184887619142,80.3598670405958,-65.95767467555277,2.487224037458174,,,,3,0,2,3
1788945656.7358124,744945396.0,-9.453125,0.76953125,1.5,0.037109375,-0.09765625,-0.001953125,25.3125,-7.0,-29.5,25.3125,-7.0,-29.5,-0.005116354960092475,-0.6518767784334439,0.04776372985358577,0.7568018992851634,28.481241493545948,80.46839717279605,-154.98692835292294,0.53497314453125,0.4979248046875,0.42242431640625,-0.5361328125,28.454184887619142,80.3598670405958,-65.95767467555277,2.5188948223706666,,,,3,0,3,3
1788945656.7358124,744949402.0,-9.52734375,0.80859375,1.5390625,0.0390625,-0.091796875,-0.001953125,25.3125,-7.0,-29.5,25.3125,-7.0,-29.5,-0.005059598556509678,-0.6517140101465762,0.048019476366832015,0.7569262707361732,28.5175542109498,80.44026519557852,-154.9761084797824,0.53509521484375,0.49774169921875,0.42205810546875,-0.53643798828125,28.3129475239269,80.2980237210141,-66.10431780892323,2.621332799424208,,,,3,0,3,3
