pc_unix,dev_us,ax,ay,az,gx,gy,gz,mx_raw,my_raw,mz_raw,mx,my,mz,host_qw,host_qx,host_qy,host_qz,host_roll,host_pitch,host_yaw,chip_qw,chip_qx,chip_qy,chip_qz,chip_roll,chip_pitch,chip_yaw,diff_deg,rel_roll,rel_pitch,rel_yaw,cal_acc,cal_gyr,cal_mag,cal_rv
1788940176.806349,1143389102.0,-8.8515625,0.03125,4.33203125,0.0,0.021484375,-0.01171875,13.375,-1.75,-33.0,13.375,-1.75,-33.0,0.04210961504603386,-0.5259521593712564,0.029665222587356155,0.8489529321123934,0.7819583713590841,63.574738853388716,174.8053048723217,0.57086181640625,0.39202880859375,0.35223388671875,-0.62957763671875,0.5247987602034356,63.608652240792736,-95.27583202128072,0.6428893519775615,,,,3,0,3,3
1788940176.8227603,1143392508.0,-8.8125,0.03125,4.33203125,0.0078125,0.021484375,-0.0078125,12.8125,-1.25,-38.875,12.8125,-1.25,-38.875,0.042093659400833025,-0.525997967431926,0.029504772143664513,0.8489309338906669,0.748514406189618,63.57991248518706,174.78662668238002,0.57086181640625,0.39202880859375,0.35223388671875,-0.62957763671875,0.5247987602034356,63.608652240792736,-95.27583202128072,0.6345775786916766,,,,3,0,3,3
1788940176.8265278,1143396214.0,-8.890625,0.0703125,4.33203125,0.005859375,0.015625,-0.01171875,12.8125,-1.25,-38.875,12.8125,-1.25,-38.875,0.042069773865415355,-0.5260506970290664,0.029327941848422284,0.8489055719625602,0.7124734840430728,63.585908144470785,174.76738715481866,0.57073974609375,0.39208984375,0.352294921875,-0.62957763671875,0.5117459507893743,63.61645540215271,-95.28977626493601,1.0159931063199656,,,,3,0,3,3
1788940176.831527,1143399997.0,-8.89453125,0.0703125,4.296875,0.0078125,0.017578125,-0.0078125,16.9375,-3.5,-39.5625,16.9375,-3.5,-39.5625,0.042093807182010105,-0.5261702262849779,0.02945147029235431,0.8488260217887746,0.7347670905112504,63.60278979352336,174.77758871680444,0.57073974609375,0.39208984375,0.352294921875,-0.62957763671875,0.5117459507893743,63.61645540215271,-95.28977626493601,1.0186653329554707,,,,3,0,3,3
1788940176.838271,1143405080.0,-8.81640625,0.03125,4.296875,0.00390625,0.015625,-0.00390625,16.9375,-3.5,-39.5625,16.9375,-3.5,-39.5625,0.04215720300927,-0.5263246011004225,0.029610513795911602,0.8487216280875954,0.7590758571820309,63.62462003548766,174.7836265156689,0.5706787109375,0.39215087890625,0.35235595703125,-0.62957763671875,0.5048537305033365,63.629804697135434,-95.30282092350213,0.8764978362363497,,,,3,0,3,3
1788940176.8385975,1143408386.0,-8.85546875,0.03125,4.296875,0.01171875,0.01171875,-0.009765625,16.9375,-3.5,-39.5625,16.9375,-3.5,-39.5625,0.042211148296529034,-0.5264258503460864,0.02970634279423767,0.8486528007640579,0.7714902923705839,63.638898832918706,174.78373419081635,0.5706787109375,0.39215087890625,0.35235595703125,-0.62957763671875,0.5048537305033365,63.629804697135434,-95.30282092350213,0.8791300141997682,,,,3,0,3,3
1788940176.8425326,1143411839.0,-8.85546875,-0.0078125,4.296875,0.01171875,0.01171875,-0.009765625,15.8125,-3.125,-40.6875,15.8125,-3.125,-40.6875,0.04227099004458205,-0.5265327707329519,0.02961818870543352,0.848586570505768,0.7427423002099908,63.652816841430614,174.7575159487903,0.5706787109375,0.39215087890625,0.35235595703125,-0.62957763671875,0.5048537305033365,63.629804697135434,-95.30282092350213,0.8748903731053597,,,,3,0,3,3
1788940176.8465269,1143415946.0,-8.8125,-0.08203125,4.2578125,0.005859375,0.00390625,-0.005859375,15.8125,-3.125,-40.6875,15.8125,-3.125,-40.6875,0.04235496842792848,-0.5266283320861247,0.029482604333146183,0.8485278030420634,0.7004212747080584,63.664925928661376,174.71964338142936,0.57061767578125,0.39215087890625,0.35235595703125,-0.629638671875,0.4931300951694038,63.63043133511983,-95.32265198444969,0.8139828831383796,,,,3,0,3,3
1788940176.8469336,1143420505.0,-8.89453125,-0.04296875,4.2578125,0.0,0.001953125,0.001953125,16.6875,-2.9375,-39.1875,16.6875,-2.9375,-39.1875,0.04239934909547096,-0.5267576275865896,0.029374857981131108,0.8484490642897878,0.6691481753686128,63.68171452034768,174.6938554573239,0.57061767578125,0.39215087890625,0.35235595703125,-0.629638671875,0.4931300951694038,63.63043133511983,-95.32265198444969,0.8098766261749946,,,,3,0,3,3
1788940176.8469336,1143423911.0,-8.890625,-0.0078125,4.296875,0.0078125,0.001953125,0.001953125,16.6875,-2.9375,-39.1875,16.6875,-2.9375,-39.1875,0.042433887426389205,-0.5268544640135754,0.029305961115375923,0.8483895918680031,0.6481125699093254,63.69436096636968,174.67583703598152,0.57061767578125,0.3922119140625,0.35235595703125,-0.629638671875,0.5022237951907385,63.64034789561238,-95.32316677323193,0.14387385843559808,,,,3,0,3,3
1788940176.8562813,1143427864.0,-8.89453125,0.0703125,4.296875,0.0078125,0.001953125,0.001953125,16.6875,-2.9375,-39.1875,16.6875,-2.9375,-39.1875,0.04241122820630718,-0.5269809410468905,0.02932209793345763,0.8483116114189094,0.6531566197823802,63.71149127211752,174.68163328580317,0.57061767578125,0.3922119140625,0.35235595703125,-0.629638671875,0.5022237951907385,63.64034789561238,-95.32316677323193,0.15476011717774463,,,,3,0,3,3
1788940176.8582344,1143431847.0,-8.85546875,0.03125,4.296875,0.021484375,-0.001953125,-0.001953125,12.875,-2.9375,-34.5625,12.875,-2.9375,-34.5625,0.04247140130477429,-0.527090914144853,0.029424692460735972,0.8482367215410704,0.6660576816614513,63.72700395620528,174.68116156479454,0.57061767578125,0.3922119140625,0.35235595703125,-0.629638671875,0.5022237951907385,63.64034789561238,-95.32316677323193,0.1755284798696674,,,,3,0,3,3
1788940176.8582344,1143435854.0,-8.81640625,0.0703125,4.2578125,0.017578125,-0.013671875,-0.005859375,12.875,-2.9375,-34.5625,12.875,-2.9375,-34.5625,0.042495902868305555,-0.5271739202154683,0.02954766220353137,0.8481796341237913,0.6886606016358202,63.738982263321,174.6916236202096,0.57061767578125,0.3922119140625,0.352294921875,-0.629638671875,0.5120415454369708,63.63136074544078,-95.31154469994352,0.7762741230560378,,,,3,0,3,3
1788940176.8709378,1143439536.0,-8.8125,0.1484375,4.33203125,0.01171875,-0.015625,-0.001953125,13.375,-1.75,-33.0,13.375,-1.75,-33.0,0.042414437756528735,-0.5271565094292187,0.029406501602182628,0.8481994386344055,0.6690374917029456,63.73568769137602,174.6905090023375,0.57061767578125,0.3922119140625,0.352294921875,-0.629638671875,0.5120415454369708,63.63136074544078,-95.31154469994352,0.7715460842650598,,,,3,0,3,3
1788940176.8745449,1143444419.0,-8.77734375,0.109375,4.33203125,0.001953125,-0.017578125,0.0,13.375,-1.75,-33.0,13.375,-1.75,-33.0,0.042328046715100764,-0.5271151212628578,0.029182919402462544,0.8482371971403261,0.6323007757848534,63.72864324306612,174.67951294424338,0.57061767578125,0.3922119140625,0.35223388671875,-0.62969970703125,0.5163098945881597,63.6285514626376,-95.31883871942982,0.3730724596580223,,,,3,0,3,3
1788940176.8725917,1143448572.0,-8.8125,0.0703125,4.296875,0.001953125,-0.017578125,0.0,13.375,-1.75,-33.0,13.375,-1.75,-33.0,0.04228116768382269,-0.5271218645822607,0.028989839487972565,0.8482419654468145,0.5962502730705298,63.72830712598409,174.6634511778235,0.57061767578125,0.3922119140625,0.35223388671875,-0.62969970703125,0.5163098945881597,63.6285514626376,-95.31883871942982,0.3619961748799425,,,,3,0,3,3
1788940176.8745449,1143450979.0,-8.8515625,0.03125,4.33203125,0.0,-0.0234375,-0.001953125,13.375,-2.3125,-33.4375,13.375,-2.3125,-33.4375,0.042275163182859954,-0.5271331882570172,0.028878906365143543,0.8482390118256811,0.5725781606624728,63.729131564447776,174.6495319208661,0.57061767578125,0.3922119140625,0.35223388671875,-0.62969970703125,0.5163098945881597,63.6285514626376,-95.31883871942982,0.3556105588898104,,,,3,0,3,3
1788940176.8745449,1143454885.0,-8.8515625,0.1484375,4.2578125,0.00390625,-0.02734375,-0.001953125,13.375,-2.3125,-33.4375,13.375,-2.3125,-33.4375,0.042188560008621694,-0.5271938706657898,0.028907408181576628,0.8482046391579365,0.5899102942565483,63.7374313401378,174.6718049676922,0.57061767578125,0.39215087890625,0.35211181640625,-0.6297607421875,0.5212962896281347,63.60684967313286,-95.31401018243685,0.9394833677845396,,,,3,0,3,3
1788940176.8874953,1143459168.0,-8.85546875,0.109375,4.296875,-0.001953125,-0.03515625,-0.005859375,13.375,-2.3125,-33.4375,13.375,-2.3125,-33.4375,0.042089642144263535,-0.5272457065384304,0.028856727468721883,0.8481790590675738,0.5916648887669488,63.744032761413244,174.6861027834401,0.57061767578125,0.39215087890625,0.35211181640625,-0.6297607421875,0.5212962896281347,63.60684967313286,-95.31401018243685,0.9408467516362143,,,,3,0,3,3
1788940176.8914304,1143463021.0,-8.8125,0.109375,4.33203125,-0.001953125,-0.03515625,-0.005859375,13.5625,-3.4375,-34.4375,13.5625,-3.4375,-34.4375,0.04210123655270404,-0.5271982531029761,0.029036175705434077,0.8482018558729443,0.6300810178316979,63.73876426104039,174.7085388512646,0.57061767578125,0.39215087890625,0.35211181640625,-0.6297607421875,0.5212962896281347,63.60684967313286,-95.31401018243685,0.94407826342016,,,,3,0,3,3
1788940176.891485,1143468404.0,-8.81640625,0.0703125,4.37109375,-0.001953125,-0.03515625,-0.0078125,13.5625,-3.4375,-34.4375,13.5625,-3.4375,-34.4375,0.04215057552038191,-0.5271022534238082,0.029283142531078443,0.8482505767651141,0.6787436923428977,63.72739613214237,174.73237688719288,0.5706787109375,0.39202880859375,0.35205078125,-0.62982177734375,0.5135569840026212,63.58976696635577,-95.31936227560011,0.895946327336009,,,,3,0,3,3
1788940176.893438,1143471010.0,-8.8125,0.1484375,4.33203125,0.00390625,-0.033203125,-0.013671875,13.5625,-3.4375,-34.4375,13.5625,-3.4375,-34.4375,0.04216201679979994,-0.5270721035690106,0.029405524404588212,0.8482645089317381,0.7044118807240805,63.724099098548905,174.74685513683502,0.5706787109375,0.39202880859375,0.35205078125,-0.62982177734375,0.5135569840026212,63.58976696635577,-95.31936227560011,0.8990362682288402,,,,3,0,3,3
1788940176.893438,1143474616.0,-8.8125,0.0703125,4.296875,0.001953125,-0.033203125,-0.01171875,13.5625,-3.4375,-34.4375,13.5625,-3.4375,-34.4375,0.04220410403937991,-0.5270580443402614,0.0295627235531584,0.8482656876678272,0.7333284420980171,63.72321057319123,174.75915648724254,0.5706787109375,0.39190673828125,0.35198974609375,-0.62994384765625,0.4941351101971939,63.57331605316033,-95.34451184107056,0.7920607126429475,,,,3,0,3,3
1788940176.9070625,1143478946.0,-8.81640625,0.0703125,4.37109375,0.001953125,-0.033203125,-0.01171875,13.5625,-3.4375,-34.4375,13.5625,-3.4375,-34.4375,0.042259783746437345,-0.5269855811921854,0.02976383281139051,0.8483009030701396,0.7707254657951831,63.714730845884006,174.77505415594982,0.5706787109375,0.39190673828125,0.35198974609375,-0.62994384765625,0.4941351101971939,63.57331605316033,-95.34451184107056,0.79770139924207,,,,3,0,3,3
1788940176.9082706,1143482552.0,-8.81640625,0.0703125,4.33203125,-0.00390625,-0.041015625,-0.009765625,13.375,-2.6875,-33.0625,13.375,-2.6875,-33.0625,0.04225827457709782,-0.5269969724005673,0.029878225469642552,0.84828988026098,0.7958971108559114,63.71696751639758,174.79084749935845,0.5706787109375,0.39190673828125,0.35198974609375,-0.62994384765625,0.4941351101971939,63.57331605316033,-95.34451184107056,0.8029648098497351,,,,3,0,3,3
1788940176.9172428,1143486258.0,-8.7734375,0.0703125,4.37109375,0.001953125,-0.048828125,-0.013671875,13.375,-2.6875,-33.0625,13.375,-2.6875,-33.0625,0.04227909380764633,-0.5268145984825282,0.02994907563873218,0.8483996168792641,0.8107672737040588,63.69283894724896,174.7977835736676,0.57073974609375,0.3917236328125,0.35186767578125,-0.63006591796875,0.4816297283606725,63.543537463719424,-95.35661880144046,0.856000659506005,,,,3,0,3,3
1788940176.9217596,1143490541.0,-8.7734375,0.0703125,4.37109375,0.001953125,-0.041015625,-0.013671875,12.4375,-3.75,-39.8125,12.4375,-3.75,-39.8125,0.042350264639119,-0.5266928295874045,0.030131785881829805,0.8484651989479483,0.8425480042016276,63.677614156748206,174.8082216369394,0.57073974609375,0.3917236328125,0.35186767578125,-0.63006591796875,0.4816297283606725,63.543537463719424,-95.35661880144046,0.860574006791734,,,,3,0,3,3
1788940176.9251213,1143493947.0,-8.81640625,0.0703125,4.37109375,0.0,-0.044921875,-0.013671875,12.4375,-3.75,-39.8125,12.4375,-3.75,-39.8125,0.04240864740393503,-0.5266173900195699,0.030282102714844307,0.8485037568623445,0.8684105980460212,63.66842378292185,174.81657965885051,0.57080078125,0.3916015625,0.351806640625,-0.63018798828125,0.4684114075272355,63.532615326943976,-95.38079651883928,0.0,,,,3,0,3,3
1788940176.9271245,1143497900.0,-8.77734375,0.109375,4.37109375,0.0,-0.044921875,-0.013671875,12.4375,-3.75,-39.8125,12.4375,-3.75,-39.8125,0.04243674510419647,-0.5265097432308041,0.03045637939199004,0.8485629157006127,0.9040123787540087,63.655007529534785,174.83515071335725,0.57080078125,0.3916015625,0.351806640625,-0.63018798828125,0.4684114075272355,63.532615326943976,-95.38079651883928,0.0,,,,3,0,3,3
1788940176.9280322,1143502660.0,-8.77734375,0.109375,4.41015625,0.0078125,-0.048828125,-0.015625,16.6875,-3.75,-41.3125,16.6875,-3.75,-41.3125,0.04247469891855094,-0.5263289482138264,0.030651300789561985,0.8486661510769787,0.9435984819855778,63.63186883387989,174.8550419632878,0.57080078125,0.3916015625,0.351806640625,-0.63018798828125,0.4684114075272355,63.532615326943976,-95.38079651883928,0.0,,,,3,0,2,3
1788940176.9280322,1143506366.0,-8.81640625,0.0703125,4.37109375,0.0078125,-0.046875,-0.017578125,16.6875,-3.75,-41.3125,16.6875,-3.75,-41.3125,0.042547228311957584,-0.5262565600209099,0.030824474972486506,0.8487011359369085,0.9724497082298583,63.623244575791894,174.863308426427,0.57080078125,0.39141845703125,0.35162353515625,-0.63031005859375,0.45961195976034863,63.488393769565725,-95.38225022985121,1.1137564029091005,,,,3,0,2,3
1788940176.9374912,1143510349.0,-8.77734375,0.03125,4.37109375,-0.001953125,-0.048828125,-0.01953125,16.125,-2.1875,-40.5625,16.125,-2.1875,-40.5625,0.042566316247962324,-0.526166921377351,0.030599563846706104,0.8487638931185459,0.9216615032925742,63.60982476447866,174.82950645911623,0.57080078125,0.39141845703125,0.35162353515625,-0.63031005859375,0.45961195976034863,63.488393769565725,-95.38225022985121,1.1027064361011252,,,,3,0,2,3
1788940176.9457867,1143513555.0,-8.77734375,0.03125,4.41015625,0.0,-0.046875,-0.02734375,16.125,-2.1875,-40.5625,16.125,-2.1875,-40.5625,0.042593733937177004,-0.5260823191968306,0.03041946370724851,0.8488214320371137,0.8795222706252562,63.59735745101556,174.79993701753708,0.57080078125,0.3912353515625,0.3515625,-0.6304931640625,0.42577284984061,63.468219404863675,-95.42561260276702,0.7918375607715622,,,,3,0,2,3
1788940176.9478538,1143518738.0,-8.7734375,0.0703125,4.48828125,0.0,-0.046875,-0.03125,16.125,-2.1875,-40.5625,16.125,-2.1875,-40.5625,0.04263027243060652,-0.5258947773996732,0.030162313761609976,0.8489449792564807,0.8205611684146266,63.57055224023539,174.75902965254545,0.57080078125,0.3912353515625,0.3515625,-0.6304931640625,0.42577284984061,63.468219404863675,-95.42561260276702,0.773784418151763,,,,3,0,2,3
1788940176.951789,1143521791.0,-8.81640625,0.0703125,4.48828125,0.0,-0.046875,-0.03125,16.0625,-2.375,-38.875,16.0625,-2.375,-38.875,0.04265248294636623,-0.5257776318079856,0.03001810574285313,0.849021531479919,0.7874497657474692,63.55390457053535,174.73587989946432,0.57080078125,0.3912353515625,0.3515625,-0.6304931640625,0.42577284984061,63.468219404863675,-95.42561260276702,0.7641830994051748,,,,3,0,2,3
1788940176.956485,1143525597.0,-8.77734375,-0.0078125,4.48828125,0.0,-0.037109375,-0.03125,16.0625,-2.375,-38.875,16.0625,-2.375,-38.875,0.042713168985324575,-0.5256562639323532,0.029826802755256898,0.8491003705224196,0.7389300377547933,63.53642585499969,174.69803048173776,0.57080078125,0.39105224609375,0.35150146484375,-0.63067626953125,0.3919956887258397,63.4480420682166,-95.4689131846942,0.0,,,,3,0,2,3
1788940176.961911,1143529180.0,-8.73828125,-0.04296875,4.48828125,0.0,-0.033203125,-0.02734375,13.4375,-2.5,-34.8125,13.4375,-2.5,-34.8125,0.04278763263008801,-0.5255307950290505,0.029675112535776073,0.8491795980038828,0.6972914561250245,63.51864496692145,174.66260858763587,0.57080078125,0.39105224609375,0.35150146484375,-0.63067626953125,0.3919956887258397,63.4480420682166,-95.4689131846942,0.0,,,,3,0,3,3
1788940176.9653683,1143534263.0,-8.77734375,0.0703125,4.44921875,0.013671875,-0.0234375,-0.02734375,13.4375,-2.5,-34.8125,13.4375,-2.5,-34.8125,0.042821239810301864,-0.5253496864850221,0.029533740181425044,0.849294887846438,0.6641797290803039,63.49339890905671,174.63816699228087,0.57073974609375,0.39093017578125,0.3514404296875,-0.63079833984375,0.3666636585139161,63.426118288635536,-95.49484914079589,0.8245218911919185,,,,3,0,3,3
1788940176.967794,1143537039.0,-8.734375,0.03125,4.5234375,0.013671875,-0.0234375,-0.02734375,13.4375,-2.5,-34.8125,13.4375,-2.5,-34.8125,0.042865064370352306,-0.5252437489659944,0.029471562848476737,0.8493603578057675,0.6460393665593727,63.478778855336515,174.621375276149,0.57073974609375,0.39093017578125,0.3514404296875,-0.63079833984375,0.3666636585139161,63.426118288635536,-95.49484914079589,0.8203657983031241,,,,3,0,3,3
1788940176.9732823,1143541599.0,-8.734375,-0.08203125,4.5234375,0.0078125,-0.015625,-0.021484375,13.25,-4.875,-34.6875,13.25,-4.875,-34.6875,0.04300225511257968,-0.5251677525637457,0.029657399533280383,0.8493939465143958,0.668940285720195,63.46983063714333,174.61723590169672,0.57073974609375,0.39093017578125,0.3514404296875,-0.63079833984375,0.3666636585139161,63.426118288635536,-95.49484914079589,0.8256611501483185,,,,3,0,3,3
1788940176.9757934,1143545505.0,-8.6953125,-0.08203125,4.48828125,0.00390625,-0.01171875,-0.021484375,13.25,-4.875,-34.6875,13.25,-4.875,-34.6875,0.04311713896822617,-0.5251137069449927,0.029812088581188053,0.849416120920783,0.6877897426031819,63.46362671428706,174.6135344485142,0.5706787109375,0.390869140625,0.3514404296875,-0.63092041015625,0.34056708393106444,63.422983736242905,-95.53282115485804,0.4648107950906301,,,,3,0,3,3
1788940176.9755023,1143548711.0,-8.81640625,0.0703125,4.48828125,0.01171875,-0.00390625,-0.017578125,13.25,-4.875,-34.6875,13.25,-4.875,-34.6875,0.043179899380851317,-0.5250952493105749,0.029969373988252307,0.8494188084000007,0.7137953257458689,63.462189259577244,174.62117717357853,0.5706787109375,0.390869140625,0.3514404296875,-0.63092041015625,0.34056708393106444,63.422983736242905,-95.53282115485804,0.47642306208399615,,,,3,0,3,3
1788940176.9799292,1143552864.0,-8.77734375,0.03125,4.48828125,0.01171875,-0.00390625,-0.017578125,14.0,-3.3125,-33.75,14.0,-3.3125,-33.75,0.043270975233537366,-0.5250053704249638,0.030128081599531956,0.8494641148550167,0.7371709402350047,63.45117261473986,174.62358978348453,0.5706787109375,0.390869140625,0.3514404296875,-0.63092041015625,0.34056708393106444,63.422983736242905,-95.53282115485804,0.48765855861416463,,,,3,0,3,3
1788940176.9866161,1143558247.0,-8.8125,-0.04296875,4.48828125,0.013671875,0.001953125,-0.015625,14.0,-3.3125,-33.75,14.0,-3.3125,-33.75,0.0434800341586312,-0.5249022731306283,0.030281000003755488,0.8495117134746502,0.7435236979600449,63.43844737269739,174.59960258848656,0.57061767578125,0.390869140625,0.35137939453125,-0.6309814453125,0.3387619038441897,63.41468097594359,-95.54102032506111,0.843428735070333,,,,3,0,3,3
1788940176.9911644,1143560754.0,-8.8125,-0.0078125,4.48828125,0.009765625,0.00390625,-0.017578125,14.0,-3.3125,-33.75,14.0,-3.3125,-33.75,0.04355819899778792,-0.5248586511304904,0.0303663390870592,0.8495316151174134,0.7520922052581663,63.4331873016975,174.59447215061272,0.57061767578125,0.390869140625,0.35137939453125,-0.6309814453125,0.3387619038441897,63.41468097594359,-95.54102032506111,0.8471546342473639,,,,3,0,3,3
1788940176.9911644,1143564660.0,-8.8125,0.0703125,4.5234375,0.021484375,0.013671875,-0.015625,14.0,-3.3125,-33.75,14.0,-3.3125,-33.75,0.0436263326762001,-0.5248008690378237,0.03053906929973872,0.8495576238258805,0.7811987119270544,63.42656897069987,174.60341189768906,0.570556640625,0.390869140625,0.35137939453125,-0.63104248046875,0.3271616662453162,63.415298138524854,-95.56074345486586,0.7983917140632724,,,,3,0,3,3
1788940176.9892113,1143568789.0,-8.8515625,0.109375,4.48828125,0.021484375,0.013671875,-0.015625,14.0,-3.3125,-33.75,14.0,-3.3125,-33.75,0.0436778496873734,-0.5247781485191122,0.030756712427054838,0.8495611602022655,0.8218764223510218,63.424938020455606,174.621626537299,0.570556640625,0.390869140625,0.35137939453125,-0.63104248046875,0.3271616662453162,63.415298138524854,-95.56074345486586,0.8112793223443243,,,,3,0,3,3
1788940176.9911644,1143572196.0,-8.8125,0.03125,4.48828125,0.01953125,0.015625,-0.01953125,12.75,-2.6875,-33.1875,12.75,-2.6875,-33.1875,0.04374850839977924,-0.5247051600959919,0.030698588330660102,0.8496047078824002,0.8006055347780098,63.414814895432016,174.59918099237197,0.570556640625,0.390869140625,0.35137939453125,-0.63104248046875,0.3271616662453162,63.415298138524854,-95.56074345486586,0.8071688784125193,,,,3,0,3,3
1788940177.006523,1143576302.0,-8.81640625,-0.04296875,4.44921875,0.0078125,0.017578125,-0.0234375,12.75,-2.6875,-33.1875,12.75,-2.6875,-33.1875,0.043885618175678334,-0.5246970721919705,0.030517348592227538,0.8496091609589748,0.742822091643038,63.412694906839945,174.5450500371473,0.5704345703125,0.39093017578125,0.3514404296875,-0.631103515625,0.3086294897206173,63.42920546603417,-95.59349200211865,0.511663231827799,,,,3,0,3,3
1788940176.999752,1143580285.0,-8.8125,0.03125,4.37109375,0.0078125,0.01953125,-0.009765625,13.6875,-0.875,-33.1875,13.6875,-0.875,-33.1875,0.04388325709191608,-0.5247442236665564,0.03032512167130566,0.8495870446700611,0.7007440953145467,63.41780258986304,174.51926215291948,0.5704345703125,0.39093017578125,0.3514404296875,-0.631103515625,0.3086294897206173,63.42920546603417,-95.59349200211865,0.49353915052471314,,,,3,0,3,3
1788940177.006523,1143584968.0,-8.77734375,0.109375,4.48828125,0.01953125,0.0234375,-0.015625,13.6875,-0.875,-33.1875,13.6875,-0.875,-33.1875,0.04388455139762109,-0.5247550975216834,0.030129940797158444,0.8495872059071969,0.6579866907259804,63.41800661598843,174.4926735187689,0.5703125,0.3909912109375,0.35150146484375,-0.631103515625,0.2955744567673086,63.43700171157978,-95.60749177995633,0.9310878127333523,,,,3,0,3,3
1788940177.006523,1143588344.0,-8.73828125,0.0703125,4.44921875,0.01953125,0.0234375,-0.015625,13.6875,-0.875,-33.1875,13.6875,-0.875,-33.1875,0.04389303613161476,-0.5247691646736197,0.02998482638441797,0.8495832127423403,0.6251047520186541,63.418964873096854,174.47119579049507,0.5703125,0.3909912109375,0.35150146484375,-0.631103515625,0.2955744567673086,63.43700171157978,-95.60749177995633,0.9244133931266192,,,,3,0,3,3
1788940177.006523,1143592127.0,-8.77734375,-0.0078125,4.41015625,0.01171875,0.02734375,-0.021484375,12.125,-1.8125,-39.375,12.125,-1.8125,-39.375,0.043909214181610895,-0.5248088712700786,0.029798571666104785,0.8495644028988264,0.5818985705885629,63.423105990339955,174.44222277088195,0.5703125,0.3909912109375,0.35150146484375,-0.631103515625,0.2955744567673086,63.43700171157978,-95.60749177995633,0.9160697778711442,,,,3,0,3,3
1788940177.0223181,1143596033.0,-8.8125,-0.0078125,4.41015625,0.0078125,0.0234375,-0.01953125,12.125,-1.8125,-39.375,12.125,-1.8125,-39.375,0.043917669134946234,-0.5248497477336039,0.029600990010222747,0.8495456209245861,0.5372433585723174,63.42731810316473,174.41338958773866,0.5701904296875,0.39111328125,0.3515625,-0.63116455078125,0.28598711073682154,63.46079299498596,-95.64083173881811,0.0,,,,3,0,3,3
1788940177.0210257,1143599816.0,-8.77734375,0.1484375,4.37109375,0.009765625,0.025390625,-0.01953125,16.5625,-0.1875,-39.5625,16.5625,-0.1875,-39.5625,0.043905892633397905,-0.524898016768406,0.02941774082669394,0.8495227725666405,0.4983222958206141,63.43260057854359,174.39079546115426,0.5701904296875,0.39111328125,0.3515625,-0.63116455078125,0.28598711073682154,63.46079299498596,-95.64083173881811,0.0,,,,3,0,3,3
1788940177.0232537,1143603769.0,-8.77734375,-0.0078125,4.33203125,0.009765625,0.025390625,-0.01953125,16.5625,-0.1875,-39.5625,16.5625,-0.1875,-39.5625,0.043924722134603425,-0.5249574270048105,0.029220444304251462,0.8494918976968228,0.45205096077448703,63.439301366801665,174.35948784138168,0.5701904296875,0.39111328125,0.3515625,-0.63116455078125,0.28598711073682154,63.46079299498596,-95.64083173881811,0.0,,,,3,0,3,3
1788940177.0299377,1143608452.0,-8.8125,-0.04296875,4.37109375,0.005859375,0.021484375,-0.0234375,16.5625,-0.1875,-39.5625,16.5625,-0.1875,-39.5625,0.04395679450684866,-0.5250148063454455,0.0289726563697568,0.8494632649606556,0.3930151624089018,63.445390015391936,174.3185130011507,0.570068359375,0.39117431640625,0.35162353515625,-0.63116455078125,0.2728989844076637,63.46859115823404,-95.65487432963421,0.6497389790525857,,,,3,0,3,3
1788940177.0409448,1143611258.0,-8.8515625,0.1484375,4.37109375,0.015625,0.025390625,-0.013671875,15.1875,-3.625,-40.8125,15.1875,-3.625,-40.8125,0.04395181072272468,-0.5250694848075148,0.029112250247538975,0.8494249533323643,0.4233025564412845,63.453676268723505,174.3376817162192,0.570068359375,0.39117431640625,0.35162353515625,-0.63116455078125,0.2728989844076637,63.46859115823404,-95.65487432963421,0.6554112832257497,,,,3,0,3,3
1788940177.0409448,1143616141.0,-8.8515625,0.03125,4.33203125,0.021484375,0.0234375,-0.017578125,15.1875,-3.625,-40.8125,15.1875,-3.625,-40.8125,0.04404047625378734,-0.5252371700968308,0.029282687359539414,0.8493108240338257,0.44610622657220506,63.47742344660674,174.3391825895692,0.5699462890625,0.3912353515625,0.3516845703125,-0.6312255859375,0.25428767813324255,63.48251579819174,-95.68772777786971,0.2548568274899576,,,,3,0,3,3
1788940177.0513883,1143619924.0,-8.85546875,-0.04296875,4.296875,0.0078125,0.021484375,-0.015625,15.875,-4.0625,-40.4375,15.875,-4.0625,-40.4375,0.044135163488074725,-0.5253588679833757,0.02939284565114862,0.8492268294158133,0.45561441197153374,63.494587565711385,174.3318297194946,0.5699462890625,0.3912353515625,0.3516845703125,-0.6312255859375,0.25428767813324255,63.48251579819174,-95.68772777786971,0.26422332815226307,,,,3,0,3,3
1788940177.0513883,1143623500.0,-8.8125,-0.0078125,4.33203125,0.0078125,0.021484375,-0.015625,15.875,-4.0625,-40.4375,15.875,-4.0625,-40.4375,0.04421893354198991,-0.5254434672544357,0.029539279638905788,0.8491650485002668,0.4750226877161064,63.506997087925775,174.33220386711258,0.5699462890625,0.3912353515625,0.3516845703125,-0.6312255859375,0.25428767813324255,63.48251579819174,-95.68772777786971,0.27982590579129296,,,,3,0,3,3
1788940177.0540633,1143627207.0,-8.77734375,-0.04296875,4.2578125,0.017578125,0.021484375,-0.01953125,15.875,-4.0625,-40.4375,15.875,-4.0625,-40.4375,0.04433029024280921,-0.5255625497528158,0.029656217844417916,0.8490814686515492,0.48379378280919594,63.523870805694706,174.32215724070505,0.56982421875,0.391357421875,0.35174560546875,-0.6312255859375,0.2501501917811178,63.50020596043277,-95.7023592786748,0.30290664324480987,,,,3,0,3,3
1788940177.0624669,1143631566.0,-8.8125,-0.08203125,4.2578125,0.01171875,0.009765625,-0.015625,13.375,-5.6875,-34.0625,13.375,-5.6875,-34.0625,0.04443416342368397,-0.5256231161874132,0.029858887232666907,0.849031443294945,0.5130902755878821,63.53343846651745,174.32602153791055,0.56982421875,0.391357421875,0.35174560546875,-0.6312255859375,0.2501501917811178,63.50020596043277,-95.7023592786748,0.32466971411640594,,,,3,0,3,3
1788940177.0605137,1143635072.0,-8.81640625,-0.04296875,4.296875,0.009765625,0.0078125,-0.017578125,13.375,-5.6875,-34.0625,13.375,-5.6875,-34.0625,0.04451397246412997,-0.5256613605749729,0.030021948644818348,0.8489978344221489,0.5373231797365452,63.53972451235622,174.33008874405914,0.5697021484375,0.391357421875,0.35174560546875,-0.63128662109375,0.2323691683972263,63.49531367282559,-95.72313003684275,0.9662613908039491,,,,3,0,3,3
1788940177.071313,1143639055.0,-8.8515625,-0.0078125,4.2578125,0.01953125,0.00390625,-0.0078125,13.9375,-2.8125,-33.75,13.9375,-2.8125,-33.75,0.04457689516280576,-0.5257919706968012,0.030040297319936154,0.8489130017294753,0.5310006237146404,63.55747266559366,174.31721780829568,0.5697021484375,0.391357421875,0.35174560546875,-0.63128662109375,0.2323691683972263,63.49531367282559,-95.72313003684275,0.9671972585805323,,,,3,0,3,3
1788940177.0732806,1143643032.0,-8.8515625,-0.08203125,4.2578125,0.01953125,0.00390625,-0.0078125,13.9375,-2.8125,-33.75,13.9375,-2.8125,-33.75,0.044674687560874136,-0.5259105903960745,0.029997257168820304,0.8488359015516121,0.5066865705689613,63.57321693086646,174.2885406127943,0.5697021484375,0.391357421875,0.35174560546875,-0.63128662109375,0.2323691683972263,63.49531367282559,-95.72313003684275,0.9656688847271776,,,,3,0,3,3
1788940177.0732806,1143646738.0,-8.85546875,-0.08203125,4.296875,0.017578125,-0.00390625,-0.0078125,13.9375,-2.8125,-33.75,13.9375,-2.8125,-33.75,0.04477957792601536,-0.5260006675374606,0.029937778538893782,0.8487766588255533,0.47818560137122923,63.58500722672414,174.25640477971595,0.56964111328125,0.39141845703125,0.35174560546875,-0.63134765625,0.22969958670789847,63.50583111766144,-95.7434708177913,0.4463003874555769,,,,3,0,3,3
1788940177.0665097,1143651097.0,-8.8515625,0.0703125,4.296875,0.029296875,-0.009765625,-0.005859375,13.25,-2.375,-34.0625,13.25,-2.375,-34.0625,0.04476258848216435,-0.5260963191836093,0.02987584068540528,0.8487204532454573,0.4656138177497274,63.597460616560085,174.25057043052627,0.56964111328125,0.39141845703125,0.35174560546875,-0.63134765625,0.22969958670789847,63.50583111766144,-95.7434708177913,0.44328107079059387,,,,3,0,3,3
1788940177.0858126,1143654504.0,-8.8515625,0.03125,4.2578125,0.01953125,-0.01171875,-0.005859375,13.25,-2.375,-34.0625,13.25,-2.375,-34.0625,0.044771092883019344,-0.5261719567384933,0.02980883212226201,0.8486754707846527,0.4487400832151219,63.607198261145285,174.2386969216636,0.569580078125,0.3914794921875,0.35162353515625,-0.63140869140625,0.24673329027789803,63.4984934688047,-95.7406457627195,0.7658435749110966,,,,3,0,3,3
1788940177.0838594,1143658833.0,-8.81640625,-0.0078125,4.296875,0.01953125,-0.01171875,-0.005859375,13.25,-2.375,-34.0625,13.25,-2.375,-34.0625,0.04480706156105932,-0.5262312453465957,0.029658507219906906,0.8486420780309689,0.41013327563554064,63.614180222991,174.20971017865864,0.569580078125,0.3914794921875,0.35162353515625,-0.63140869140625,0.24673329027789803,63.4984934688047,-95.7406457627195,0.7598397928788424,,,,3,0,3,3
1788940177.0858126,1143663216.0,-8.8125,0.03125,4.33203125,0.025390625,-0.015625,-0.009765625,13.875,-1.4375,-33.875,13.875,-1.4375,-33.875,0.044818612447745335,-0.5262205671144667,0.029478103185149367,0.8486543749705139,0.36927098721892143,63.61151574408351,174.18288749147186,0.569580078125,0.3914794921875,0.35162353515625,-0.63140869140625,0.24673329027789803,63.4984934688047,-95.7406457627195,0.7518932999849567,,,,3,0,3,3
1788940177.097872,1143666922.0,-8.81640625,0.1875,4.37109375,0.029296875,-0.0234375,-0.005859375,13.875,-1.4375,-33.875,13.875,-1.4375,-33.875,0.04474971155591975,-0.5261782510426853,0.029366950197628534,0.8486881015316597,0.35496050404555174,63.60502686211265,174.1835018685321,0.56951904296875,0.3914794921875,0.3515625,-0.63153076171875,0.23942699518214777,63.496327648754395,-95.76765483853669,0.10577933592608678,,,,3,0,3,3
1788940177.0995076,1143678641.0,-8.77734375,0.109375,4.41015625,0.01953125,-0.01953125,-0.015625,13.75,-3.1875,-33.125,13.75,-3.1875,-33.125,0.04485039442877473,-0.5259733880937966,0.02997597495553199,0.8487884766313578,0.4772914131615665,63.581631756952916,174.2463809186055,0.5694580078125,0.3914794921875,0.3514404296875,-0.63165283203125,0.24197769200378497,63.485240915256405,-95.78308415086467,0.23965952503869137,,,,3,0,3,3
1788940177.1145408,1143688607.0,-8.73828125,0.109375,4.41015625,0.015625,-0.021484375,-0.025390625,13.75,-3.1875,-33.125,13.75,-3.1875,-33.125,0.04497230593937204,-0.5257610900810309,0.030435467082717094,0.8488971964842141,0.5640368777142669,63.55621823662621,174.28433628181796,0.5694580078125,0.39141845703125,0.351318359375,-0.63177490234375,0.24169539449128843,63.46977047981861,-95.79696250564201,0.0,,,,3,0,3,3
1788940177.1242428,1143694066.0,-8.7734375,0.22265625,4.48828125,0.015625,-0.0234375,-0.017578125,13.75,-3.1875,-33.125,13.75,-3.1875,-33.125,0.044979817693984965,-0.525622131866316,0.030679314192095894,0.8489740691995413,0.6181348993941875,63.539147711636126,174.31726009040415,0.5694580078125,0.39141845703125,0.351318359375,-0.63177490234375,0.24169539449128843,63.46977047981861,-95.79696250564201,0.0,,,,3,0,3,3
1788940177.1301575,1143698449.0,-8.73828125,0.1484375,4.48828125,0.009765625,-0.01953125,-0.025390625,13.75,-3.1875,-33.125,13.75,-3.1875,-33.125,0.045016483129597336,-0.5254980442197592,0.030838298018406096,0.8490431797872112,0.6495206346408376,63.523529417460146,174.33213299692565,0.56939697265625,0.391357421875,0.35125732421875,-0.63189697265625,0.2254540239240151,63.457719606194345,-95.82339486667429,0.0,,,,3,0,3,3
1788940177.1249952,1143703832.0,-8.7734375,-0.0078125,4.44921875,0.005859375,-0.01171875,-0.033203125,16.1875,-2.625,-40.25,16.1875,-2.625,-40.25,0.0451077430072669,-0.5254045950001714,0.030562394279761165,0.8491061436177367,0.5782670016011614,63.509167126437085,174.27608647757808,0.56939697265625,0.391357421875,0.35125732421875,-0.63189697265625,0.2254540239240151,63.457719606194345,-95.82339486667429,0.0,,,,3,0,3,3
1788940177.1340926,1143706261.0,-8.8125,0.109375,4.48828125,0.001953125,-0.015625,-0.029296875,16.1875,-2.625,-40.25,16.1875,-2.625,-40.25,0.045098595013803984,-0.5253344787528059,0.030474865527654018,0.8491531574058769,0.5613909637919869,63.49913303326933,174.26714037913524,0.56927490234375,0.39129638671875,0.35125732421875,-0.63201904296875,0.19326065717732094,63.4490839752056,-95.86238163240088,0.5706571134116517,,,,3,0,3,3
1788940177.1383417,1143709568.0,-8.7734375,0.0703125,4.37109375,0.0,-0.009765625,-0.02734375,15.9375,-2.5625,-39.9375,15.9375,-2.5625,-39.9375,0.04508754725178488,-0.525322367085099,0.03029307839137584,0.8491677414530656,0.5234384210214263,63.49626811419387,174.24522749352636,0.56927490234375,0.39129638671875,0.35125732421875,-0.63201904296875,0.19326065717732094,63.4490839752056,-95.86238163240088,0.5575386342169439,,,,3,0,3,3
1788940177.1383417,1143713344.0,-8.73828125,-0.08203125,4.37109375,0.0,-0.009765625,-0.02734375,15.9375,-2.5625,-39.9375,15.9375,-2.5625,-39.9375,0.04515886659480729,-0.5253041683203117,0.030078970559551162,0.8491828207419506,0.4673932193293748,63.492406088971556,174.2010367777772,0.56927490234375,0.39129638671875,0.35125732421875,-0.63201904296875,0.19326065717732094,63.4490839752056,-95.86238163240088,0.5411285756588012,,,,3,0,3,3
1788940177.1383417,1143717050.0,-8.77734375,-0.0078125,4.41015625,0.0,-0.01171875,-0.0234375,15.9375,-2.5625,-39.9375,15.9375,-2.5625,-39.9375,0.04519356747777734,-0.5252643961683849,0.02987523523609159,0.8492127683308122,0.4188843189214334,63.48567819686359,174.16653374242986,0.5692138671875,0.39117431640625,0.35125732421875,-0.632080078125,0.16376035930579672,63.42993651253771,-95.88102970567734,1.1996076263464501,,,,3,0,3,3
1788940177.1383417,1143721410.0,-8.8125,-0.0078125,4.37109375,0.0078125,-0.009765625,-0.02734375,16.25,-1.5625,-39.75,16.25,-1.5625,-39.75,0.04523163613445676,-0.52525960821876,0.02964090398146243,0.8492219143884809,0.36276659062380145,63.48343897731153,174.1267498235606,0.5692138671875,0.39117431640625,0.35125732421875,-0.632080078125,0.16376035930579672,63.42993651253771,-95.88102970567734,1.1926277180278049,,,,3,0,3,3
1788940177.154468,1143724916.0,-8.8125,-0.08203125,4.33203125,0.00390625,-0.01171875,-0.021484375,16.25,-1.5625,-39.75,16.25,-1.5625,-39.75,0.0452662823817914,-0.5252644217196493,0.029452636674441673,0.8492236414206672,0.3170084306591027,63.482797225646344,174.09379090791722,0.56915283203125,0.39111328125,0.35125732421875,-0.6322021484375,0.13772474557209186,63.42679199975386,-95.91898849045243,0.9636009587729606,,,,3,0,3,3
1788940177.1525004,1143728699.0,-8.8125,-0.08203125,4.37109375,0.00390625,-0.009765625,-0.025390625,13.375,-4.1875,-33.625,13.375,-4.1875,-33.625,0.045383231033892676,-0.5252709682501567,0.029604072342833482,0.8492080847208107,0.33407840214709017,63.4847749031246,174.0885108864724,0.56915283203125,0.39111328125,0.35125732421875,-0.6322021484375,0.13772474557209186,63.42679199975386,-95.91898849045243,0.9673484248961545,,,,3,0,3,3
1788940177.154468,1143732975.0,-8.8515625,-0.04296875,4.37109375,0.00390625,-0.009765625,-0.025390625,13.375,-4.1875,-33.625,13.375,-4.1875,-33.625,0.04549763133726338,-0.5252840865092653,0.02977966669484992,0.8491877091988372,0.3566587253410692,63.487807246462566,174.08695308098783,0.56915283203125,0.39111328125,0.35125732421875,-0.6322021484375,0.13772474557209186,63.42679199975386,-95.91898849045243,0.9725005020485024,,,,3,0,3,3
1788940177.1640055,1143737358.0,-8.8125,0.03125,4.41015625,0.009765625,-0.01953125,-0.0234375,13.375,-4.1875,-33.625,13.375,-4.1875,-33.625,0.04559250207476962,-0.5252494001718414,0.02998435876796716,0.8491968732884952,0.38892103124004973,63.48460264501443,174.0941987692681,0.569091796875,0.39105224609375,0.35125732421875,-0.63232421875,0.1117021014208062,63.423644015278256,-95.95693219520113,0.6905250303411304,,,,3,0,3,3
1788940177.1686487,1143740741.0,-8.8125,-0.0078125,4.41015625,0.00390625,-0.01171875,-0.025390625,12.6875,-2.25,-33.5,12.6875,-2.25,-33.5,0.045627156870541294,-0.5252239559479779,0.029799050840815976,0.8492172720942821,0.344253524291378,63.4799034385649,174.06203084660604,0.569091796875,0.39105224609375,0.35125732421875,-0.63232421875,0.1117021014208062,63.423644015278256,-95.95693219520113,0.6799304436826892,,,,3,0,3,3
1788940177.176628,1143745324.0,-8.8125,0.0703125,4.44921875,0.0078125,-0.01171875,-0.025390625,12.6875,-2.25,-33.5,12.6875,-2.25,-33.5,0.04560175056281563,-0.5251256589777819,0.02961269056163006,0.8492859419456196,0.30857733598506504,63.46536333918489,174.04382267976516,0.56903076171875,0.3909912109375,0.35125732421875,-0.63238525390625,0.09118246444594205,63.41438146133334,-95.97612713617714,0.989415671068316,,,,3,0,3,3
1788940177.1767921,1143748377.0,-8.8125,0.03125,4.37109375,0.0078125,-0.01171875,-0.025390625,12.6875,-2.25,-33.5,12.6875,-2.25,-33.5,0.04560556656750957,-0.5251368194616252,0.02945747372022946,0.8492842341559196,0.2741097609828424,63.465777823686075,174.02198344803318,0.56903076171875,0.3909912109375,0.35125732421875,-0.63238525390625,0.09118246444594205,63.41438146133334,-95.97612713617714,0.9842853422420557,,,,3,0,3,3
1788940177.1827166,1143752660.0,-8.77734375,-0.04296875,4.41015625,0.005859375,-0.01171875,-0.021484375,12.5625,-2.875,-34.25,12.5625,-2.875,-34.25,0.04579500566979935,-0.5250521547741459,0.029324677812319063,0.8493309811221613,0.22091298635883125,63.45350365928231,173.96390585844918,0.56903076171875,0.3909912109375,0.35125732421875,-0.63238525390625,0.09118246444594205,63.41438146133334,-95.97612713617714,0.978231382572386,,,,3,0,3,3
1788940177.1889803,1143756766.0,-8.77734375,0.0703125,4.44921875,0.005859375,-0.013671875,-0.01953125,12.5625,-2.875,-34.25,12.5625,-2.875,-34.25,0.0457948361751526,-0.5249297278578576,0.02944456142453625,0.8494025144731344,0.24888471165833279,63.437881354352584,173.9816943775831,0.5689697265625,0.39093017578125,0.35125732421875,-0.63250732421875,0.06518459484605638,63.41122816296816,-96.01404967158295,0.6927832138723027,,,,3,0,3,3
1788940177.192318,1143760149.0,-8.81640625,0.22265625,4.48828125,-0.001953125,-0.01171875,-0.017578125,13.1875,-0.5,-33.875,13.1875,-0.5,-33.875,0.045745511088222134,-0.5248924786257121,0.029279959621079786,0.8494338809242433,0.22031540385088008,63.43169134614393,173.97088240559083,0.5689697265625,0.39093017578125,0.35125732421875,-0.63250732421875,0.06518459484605638,63.41122816296816,-96.01404967158295,0.6859520684517544,,,,3,0,3,3
1788940177.1963143,1143764832.0,-8.81640625,0.1875,4.37109375,-0.0078125,-0.00390625,-0.025390625,13.1875,-0.5,-33.875,13.1875,-0.5,-33.875,0.04569060140748326,-0.5249014099788327,0.02901977119846192,0.8494402460590414,0.1710135446264265,63.431033352539636,173.9478448690082,0.56890869140625,0.390869140625,0.35125732421875,-0.632568359375,0.044687399791595334,63.40196485072497,-96.03323625172918,0.9928723872232283,,,,3,0,3,3
1788940177.2004597,1143768638.0,-8.8125,-0.0078125,4.37109375,-0.013671875,-0.00390625,-0.03515625,13.1875,-0.5,-33.875,13.1875,-0.5,-33.875,0.045703755885979275,-0.5249096523774256,0.028774683939961396,0.8494427827129266,0.1158265741420486,63.430396260875774,173.91198803660532,0.56890869140625,0.390869140625,0.35125732421875,-0.632568359375,0.044687399791595334,63.40196485072497,-96.03323625172918,0.9864460022685121,,,,3,0,3,3
1788940177.2043948,1143771791.0,-8.77734375,-0.0078125,4.41015625,-0.013671875,-0.00390625,-0.03515625,13.0,-2.8125,-33.8125,13.0,-2.8125,-33.8125,0.0458135356691653,-0.5248421332126211,0.02882413188439412,0.8494769123263012,0.11283469880453931,63.42168270660097,173.89560818657475,0.56890869140625,0.390869140625,0.35125732421875,-0.632568359375,0.044687399791595334,63.40196485072497,-96.03323625172918,0.9864390154345206,,,,3,0,3,3
1788940177.2080598,1143775897.0,-8.8125,0.1484375,4.41015625,-0.005859375,-0.009765625,-0.01953125,13.0,-2.8125,-33.8125,13.0,-2.8125,-33.8125,0.04576048303226262,-0.5248183266093774,0.02898021330456169,0.8494891697275541,0.15428267575786098,63.41958850117703,173.92843864216474,0.56884765625,0.3907470703125,0.351318359375,-0.63262939453125,0.005433989135769783,63.391706605443524,-96.06340050026577,1.2564480685314827,,,,3,0,3,3
1788940177.2114418,1143779680.0,-8.81640625,0.0703125,4.37109375,-0.015625,-0.009765625,-0.033203125,13.5625,-2.375,-34.0625,13.5625,-2.375,-34.0625,0.04567200083069007,-0.5248793311185401,0.028837977100873442,0.8494610804394778,0.1343439222716281,63.42676492013203,173.92782929364193,0.56884765625,0.3907470703125,0.351318359375,-0.63262939453125,0.005433989135769783,63.391706605443524,-96.06340050026577,1.254260057041472,,,,3,0,3,3
1788940177.2154403,1143784263.0,-8.8515625,-0.04296875,4.37109375,-0.01953125,-0.009765625,-0.03125,13.5625,-2.375,-34.0625,13.5625,-2.375,-34.0625,0.045730572526098155,-0.5249375483682334,0.02856010114054103,0.8494313425300635,0.06511681465355158,63.43261224685469,173.87696217654852,0.56884765625,0.390625,0.35137939453125,-0.63275146484375,-0.033186262606033176,63.39303145831849,-96.11121751243147,0.47755278017334046,,,,3,0,3,3
1788940177.2195156,1143787739.0,-8.8515625,-0.0078125,4.33203125,-0.01953125,-0.009765625,-0.03125,13.5625,-2.375,-34.0625,13.5625,-2.375,-34.0625,0.04574810880077058,-0.5250172012920942,0.02839885469446019,0.8493865750885239,0.026414665753131002,63.44216551687643,173.85036385615552,0.56884765625,0.390625,0.35137939453125,-0.63275146484375,-0.033186262606033176,63.39303145831849,-96.11121751243147,0.46992016045071816,,,,3,0,3,3
1788940177.22544,1143791522.0,-8.8515625,0.109375,4.33203125,-0.005859375,-0.00390625,-0.029296875,14.0625,-1.875,-39.4375,14.0625,-1.875,-39.4375,0.04569704344145067,-0.5250629548478467,0.02821120025672572,0.8493672950186117,-0.008242371504587523,63.44696223676635,173.8356709689576,0.56884765625,0.390625,0.35137939453125,-0.63275146484375,-0.033186262606033176,63.39303145831849,-96.11121751243147,0.4634071375060817,,,,3,0,3,3
1788940177.22544,1143795229.0,-8.81640625,-0.08203125,4.296875,-0.013671875,-0.013671875,-0.029296875,14.0625,-1.875,-39.4375,14.0625,-1.875,-39.4375,0.04572000969526513,-0.5250874361198553,0.02798517156806847,0.8493584021570915,-0.06090066028497466,63.4486125972369,173.79996359443058,0.56878662109375,0.39056396484375,0.35150146484375,-0.6328125,-0.07343131945989181,63.40152817378765,-96.15351643684433,0.0,,,,3,0,3,3
1788940177.22544,1143799888.0,-8.7734375,-0.12109375,4.296875,-0.009765625,-0.01953125,-0.037109375,16.375,-3.375,-39.25,16.375,-3.375,-39.25,0.04590853274588529,-0.5251778391404586,0.027907967628878257,0.849294877671886,-0.10464878731818594,63.460190586708,173.74708112548348,0.56878662109375,0.39056396484375,0.35150146484375,-0.6328125,-0.07343131945989181,63.40152817378765,-96.15351643684433,0.0,,,,3,0,3,3
1788940177.22544,1143803164.0,-8.8125,-0.04296875,4.33203125,-0.009765625,-0.01953125,-0.037109375,16.375,-3.375,-39.25,16.375,-3.375,-39.25,0.04599751199998442,-0.525233372505696,0.02795189934209671,0.8492542755966985,-0.10803992736972631,63.46797332816043,173.73270773369978,0.56878662109375,0.39056396484375,0.35150146484375,-0.6328125,-0.07343131945989181,63.40152817378765,-96.15351643684433,0.0,,,,3,0,3,3
1788940177.223487,1143808247.0,-8.81640625,-0.08203125,4.296875,-0.013671875,-0.0234375,-0.02734375,16.375,-3.375,-39.25,16.375,-3.375,-39.25,0.04612774809923565,-0.525333609868769,0.027936633705685728,0.8491857121352996,-0.13065201126084458,63.48132743419417,173.70068010365114,0.5687255859375,0.390380859375,0.35150146484375,-0.6329345703125,-0.11708388139953506,63.37858719119668,-96.19019219234465,0.6108660530975821,,,,3,0,3,3
1788940177.2411175,1143811254.0,-8.85546875,-0.16015625,4.296875,-0.013671875,-0.02734375,-0.01953125,16.375,-3.375,-39.25,16.375,-3.375,-39.25,0.04621672232313308,-0.5253831084148703,0.027874808411084986,0.8491522825889832,-0.15698289235235713,63.4875129643559,173.67216441489097,0.5687255859375,0.390380859375,0.35150146484375,-0.6329345703125,-0.11708388139953506,63.37858719119668,-96.19019219234465,0.6085712019759859,,,,3,0,3,3
1788940177.2411175,1143814760.0,-8.8515625,-0.12109375,4.33203125,-0.01171875,-0.03125,-0.021484375,16.375,-3.375,-39.25,16.375,-3.375,-39.25,0.046333469996289615,-0.5254332619867299,0.027836548967383218,0.8491161424079003,-0.18196427202753146,63.49395196790133,173.6407215015839,0.5687255859375,0.3902587890625,0.35150146484375,-0.63299560546875,-0.14026429209586996,63.36492337848482,-96.20768882164326,0.7820391659464603,,,,3,0,3,3
1788940177.2391644,1143819389.0,-8.7734375,-0.08203125,4.296875,-0.01171875,-0.03125,-0.021484375,16.375,-3.375,-39.25,16.375,-3.375,-39.25,0.046458130773916764,-0.5255007438168098,0.027852574697630927,0.84906704353407,-0.19650781345589258,63.50312325139219,173.614566122496,0.5687255859375,0.3902587890625,0.35150146484375,-0.63299560546875,-0.14026429209586996,63.36492337848482,-96.20768882164326,0.7827487110531222,,,,3,0,3,3
1788940177.2411175,1143822696.0,-8.8125,-0.12109375,4.33203125,-0.005859375,-0.03515625,-0.013671875,16.625,-3.9375,-39.625,16.625,-3.9375,-39.625,0.04655706881901521,-0.5255062290161718,0.02794377984045393,0.8490552324651279,-0.19013143634712532,63.504523721453246,173.60510892508515,0.5687255859375,0.3902587890625,0.35150146484375,-0.63299560546875,-0.14026429209586996,63.36492337848482,-96.20768882164326,0.7845420387240046,,,,3,0,0,3
1788940177.256925,1143826502.0,-8.8125,-0.04296875,4.41015625,0.00390625,-0.046875,-0.015625,16.625,-3.9375,-39.625,16.625,-3.9375,-39.625,0.04663830142834517,-0.5254248016704641,0.02811375683466701,0.8490955560513042,-0.16270448998795967,63.494828465496376,173.61146929645824,0.5687255859375,0.39007568359375,0.3514404296875,-0.63311767578125,-0.16783469923275962,63.33860746623587,-96.23168811989997,1.019995065524149,,,,3,0,0,3
1788940177.256925,1143831361.0,-8.8125,-0.0078125,4.41015625,0.00390625,-0.052734375,-0.01171875,13.25,-3.8125,-34.25,13.25,-3.8125,-34.25,0.046715214292940614,-0.5253139250695867,0.02833959498226847,0.8491524222645721,-0.12204266985424798,63.481592443940656,173.62672083200755,0.5687255859375,0.39007568359375,0.3514404296875,-0.63311767578125,-0.16783469923275962,63.33860746623587,-96.23168811989997,1.023421088107789,,,,3,0,0,3
1788940177.256925,1143834968.0,-8.77734375,-0.08203125,4.41015625,0.0,-0.046875,-0.01171875,13.25,-3.8125,-34.25,13.25,-3.8125,-34.25,0.04680490476054555,-0.5252346456772499,0.02849039833874035,0.8491914772730293,-0.09999801499904107,63.47204473970973,173.62859174545403,0.56878662109375,0.389892578125,0.351318359375,-0.63323974609375,-0.1793852967437949,63.308918784254395,-96.24304584920266,1.0599276439930134,,,,3,0,0,3
1788940177.254972,1143838321.0,-8.734375,-0.04296875,4.44921875,0.0,-0.046875,-0.01171875,13.25,-3.8125,-34.25,13.25,-3.8125,-34.25,0.04686978759447289,-0.5251338856864022,0.028628736937549356,0.8492455596210735,-0.07695841454064926,63.459518911837534,173.63452563465364,0.56878662109375,0.389892578125,0.351318359375,-0.63323974609375,-0.1793852967437949,63.308918784254395,-96.24304584920266,1.0619899413196658,,,,3,0,0,3
1788940177.2734034,1143842704.0,-8.66015625,0.03125,4.48828125,-0.00390625,-0.046875,-0.0078125,12.3125,-1.8125,-33.8125,12.3125,-1.8125,-33.8125,0.04683632346500381,-0.524956942622094,0.028454970137584648,0.8493626327262191,-0.10722321884500566,63.43442137902057,173.6212146187602,0.56878662109375,0.389892578125,0.351318359375,-0.63323974609375,-0.1793852967437949,63.308918784254395,-96.24304584920266,1.0543252566060375,,,,3,0,0,3
1788940177.2734034,1143846610.0,-8.66015625,-0.0078125,4.41015625,0.0078125,-0.046875,-0.009765625,12.3125,-1.8125,-33.8125,12.3125,-1.8125,-33.8125,0.04682863474858419,-0.5248334069941935,0.028278815396290662,0.849445279267731,-0.14235575677582024,63.41648610309658,173.60117952214156,0.56884765625,0.3897705078125,0.3511962890625,-0.63336181640625,-0.18209955325792107,63.28909899766773,-96.25499200370393,0.7332242682356481,,,,3,0,0,3
1788940177.2825449,1143850793.0,-8.6953125,-0.04296875,4.48828125,-0.00390625,-0.044921875,-0.013671875,13.0625,-1.25,-33.0,13.0625,-1.25,-33.0,0.04683039979066271,-0.5247052275880212,0.028063787448027375,0.8495314953733744,-0.18708567933911274,63.39762938405852,173.57398917868406,0.56884765625,0.3897705078125,0.3511962890625,-0.63336181640625,-0.18209955325792107,63.28909899766773,-96.25499200370393,0.7230642093851035,,,,3,0,0,3
1788940177.2825449,1143854099.0,-8.73828125,0.0703125,4.5234375,0.0,-0.044921875,-0.009765625,13.0625,-1.25,-33.0,13.0625,-1.25,-33.0,0.046799175899505656,-0.5245902699248502,0.027921180358373047,0.8496089062166751,-0.21184370567461927,63.381102583399766,173.56351359359078,0.56890869140625,0.3896484375,0.35113525390625,-0.63348388671875,-0.19469205239487838,63.27812901661168,-96.27844571956611,0.0,,,,3,0,0,3
1788940177.2872984,1143858729.0,-8.7734375,0.1484375,4.5234375,0.0,-0.044921875,-0.009765625,13.0625,-1.25,-33.0,13.0625,-1.25,-33.0,0.04671427454251742,-0.5244267301333566,0.027745001639898136,0.8497203046647784,-0.2357994075178698,63.35780641949823,173.56102994572137,0.56890869140625,0.3896484375,0.35113525390625,-0.63348388671875,-0.19469205239487838,63.27812901661168,-96.27844571956611,0.0,,,,3,0,0,3
1788940177.292488,1143862611.0,-8.8125,0.109375,4.6015625,0.00390625,-0.0390625,-0.013671875,12.9375,-1.875,-34.0625,12.9375,-1.875,-34.0625,0.04667086039739283,-0.524260375468205,0.02766154214093647,0.849828058250661,-0.24516226539036445,63.33482569793508,173.56195270868182,0.56890869140625,0.3896484375,0.35113525390625,-0.63348388671875,-0.19469205239487838,63.27812901661168,-96.27844571956611,0.0,,,,3,0,3,3
1788940177.297275,1143866418.0,-8.77734375,0.03125,4.6015625,-0.001953125,-0.037109375,-0.01953125,12.9375,-1.875,-34.0625,12.9375,-1.875,-34.0625,0.04666458420877021,-0.5241064944475924,0.02753097172267698,0.8499275525916804,-0.26991952199000685,63.31315696357699,173.54833028223442,0.56890869140625,0.38946533203125,0.35101318359375,-0.633544921875,-0.2067791185161484,63.23695829992793,-96.27224546132098,1.1635160183258373,,,,3,0,3,3
1788940177.3006296,1143869924.0,-8.7734375,0.0703125,4.6015625,-0.009765625,-0.02734375,-0.025390625,12.9375,-1.875,-34.0625,12.9375,-1.875,-34.0625,0.04664530056027124,-0.5239756396266443,0.027412582710049944,0.8500131147945046,-0.2906725168366968,63.29468036000345,173.53882257253147,0.56890869140625,0.38946533203125,0.35101318359375,-0.633544921875,-0.2067791185161484,63.23695829992793,-96.27224546132098,1.1610683614981592,,,,3,0,3,3
1788940177.3068626,1143873907.0,-8.8125,0.109375,4.6015625,-0.005859375,-0.0234375,-0.025390625,12.5625,-3.375,-34.625,12.5625,-3.375,-34.625,0.04666821209832125,-0.5238636439953566,0.027537247384544085,0.8500768556347919,-0.26480333215622476,63.28056766840445,173.5522028022106,0.5689697265625,0.38934326171875,0.35101318359375,-0.6336669921875,-0.2292156895527628,63.23482442661256,-96.3071640898164,0.0,,,,3,0,3,3
1788940177.3068416,1143879036.0,-8.734375,-0.0078125,4.5234375,-0.005859375,-0.0234375,-0.025390625,12.5625,-3.375,-34.625,12.5625,-3.375,-34.625,0.04675473412109736,-0.523712823803513,0.027686886235107122,0.8501601668812885,-0.24138992686726202,63.261408743906145,173.55567282666257,0.5689697265625,0.38934326171875,0.35101318359375,-0.6336669921875,-0.2292156895527628,63.23482442661256,-96.3071640898164,0.0,,,,3,0,3,3
1788940177.312802,1143881643.0,-8.73828125,-0.12109375,4.48828125,-0.01171875,-0.013671875,-0.029296875,12.5625,-2.9375,-34.625,12.5625,-2.9375,-34.625,0.04685291645809066,-0.523635695449014,0.027619683610754873,0.8502044552625212,-0.2677046630667504,63.25050721031679,173.526633666198,0.5689697265625,0.38934326171875,0.35101318359375,-0.6336669921875,-0.2292156895527628,63.23482442661256,-96.3071640898164,0.0,,,,3,0,3,3
1788940177.3167992,1143885549.0,-8.7734375,-0.12109375,4.5234375,-0.015625,-0.009765625,-0.025390625,12.5625,-2.9375,-34.625,12.5625,-2.9375,-34.625,0.046977241402137736,-0.5235198707614543,0.027525539733002237,0.850271973177149,-0.30262844938942146,63.234187972728556,173.48898199394995,0.5689697265625,0.38916015625,0.35113525390625,-0.6336669921875,-0.2753310276042707,63.22297581190049,-96.32836445611451,0.6407630619610342,,,,3,0,3,3
1788940177.3188646,1143889732.0,-8.7734375,-0.04296875,4.5234375,-0.0078125,0.0,-0.017578125,12.5625,-2.9375,-34.625,12.5625,-2.9375,-34.625,0.04704372959568174,-0.5233987413584164,0.02756260717674137,0.8503416652944713,-0.30136000427166293,63.2181765680455,173.4814056302823,0.5689697265625,0.38916015625,0.35113525390625,-0.6336669921875,-0.2753310276042707,63.22297581190049,-96.32836445611451,0.6418322982037225,,,,3,0,3,3
1788940177.3227997,1143893685.0,-8.8125,-0.04296875,4.5625,-0.0078125,0.0,-0.017578125,13.5625,1.375,-39.5,13.5625,1.375,-39.5,0.047025888892626266,-0.5233911014573416,0.02734042034335318,0.850354527302923,-0.3468209442102646,63.215454302539364,173.45593158282128,0.5689697265625,0.38916015625,0.35113525390625,-0.6336669921875,-0.2753310276042707,63.22297581190049,-96.32836445611451,0.6345753427159508,,,,3,0,3,3
1788940177.327004,1143898868.0,-8.77734375,-0.12109375,4.48828125,-0.021484375,0.001953125,-0.013671875,13.5625,1.375,-39.5,13.5625,1.375,-39.5,0.04698592903109502,-0.5233976641380182,0.02702035757051125,0.8503629271815141,-0.4107112562722294,63.21388948549666,173.42205242346802,0.5689697265625,0.3890380859375,0.3511962890625,-0.6336669921875,-0.30276382605582164,63.212136052856415,-96.338664198239,1.0393785418998327,,,,3,0,3,3
1788940177.3320246,1143901374.0,-8.8125,-0.12109375,4.48828125,-0.025390625,0.00390625,-0.01171875,13.5625,1.375,-39.5,13.5625,1.375,-39.5,0.04696146497278578,-0.5234045119817169,0.02686272551162947,0.8503650578562583,-0.4416031860162021,63.21360335129623,173.40634623569915,0.5689697265625,0.3890380859375,0.3511962890625,-0.6336669921875,-0.30276382605582164,63.212136052856415,-96.338664198239,1.0370092270835187,,,,3,0,3,3
1788940177.3359926,1143905480.0,-8.7734375,-0.12109375,4.5234375,-0.01171875,0.0078125,-0.013671875,13.5625,1.375,-39.5,13.5625,1.375,-39.5,0.04693955473544981,-0.523413611599482,0.026627707684974605,0.8503680583000915,-0.48958360915507426,63.21301554932301,173.3797895969794,0.5689697265625,0.38897705078125,0.351318359375,-0.6336669921875,-0.3313205959759499,63.21996278106394,-96.36107379716812,0.7550321276429525,,,,3,0,3,3
1788940177.3370066,1143908633.0,-8.734375,-0.19921875,4.48828125,-0.01171875,0.0078125,-0.013671875,13.5625,1.375,-39.5,13.5625,1.375,-39.5,0.04692920146324289,-0.5234227363625036,0.026445880248726825,0.8503686874095738,-0.5276233085713111,63.21283247713905,173.3577779218925,0.5689697265625,0.38897705078125,0.351318359375,-0.6336669921875,-0.3313205959759499,63.21996278106394,-96.36107379716812,0.7520464455723306,,,,3,0,3,3
1788940177.3424447,1143913216.0,-8.69921875,-0.2734375,4.37109375,-0.017578125,0.013671875,-0.0078125,16.1875,-2.125,-40.1875,16.1875,-2.125,-40.1875,0.04697525891936477,-0.5234660459007476,0.026181290301337586,0.8503476723532863,-0.5916986718086589,63.216549372874226,173.31197797796563,0.5689697265625,0.38897705078125,0.351318359375,-0.6336669921875,-0.3313205959759499,63.21996278106394,-96.36107379716812,0.7483217648179271,,,,3,0,3,3
1788940177.345904,1143917122.0,-8.734375,-0.2734375,4.33203125,-0.013671875,0.0078125,-0.009765625,16.1875,-2.125,-40.1875,16.1875,-2.125,-40.1875,0.04702054981249915,-0.5235141756480993,0.025964553513837463,0.850322184675696,-0.6454474711766457,63.22127424133275,173.27258940765614,0.5689697265625,0.38897705078125,0.3514404296875,-0.63360595703125,-0.3456697791034353,63.23159121203401,-96.36552491494407,0.6684731640352762,,,,3,0,3,3
1788940177.345904,1143920705.0,-8.77734375,-0.12109375,4.37109375,0.001953125,0.01171875,0.00390625,15.875,-1.5625,-39.8125,15.875,-1.5625,-39.8125,0.04700781788640328,-0.5235546529109256,0.02579567618372317,0.8503031068760736,-0.6809836685059303,63.2253849892431,173.2522530172305,0.5689697265625,0.38897705078125,0.3514404296875,-0.63360595703125,-0.3456697791034353,63.23159121203401,-96.36552491494407,0.6671741747360959,,,,3,0,3,3
1788940177.345904,1143924611.0,-8.8515625,-0.08203125,4.37109375,0.00390625,0.0078125,0.017578125,15.875,-1.5625,-39.8125,15.875,-1.5625,-39.8125,0.04695949326367537,-0.523608357820239,0.02563602260183835,0.8502775358424857,-0.7100377385698027,63.231371680154965,173.24062132863625,0.5689697265625,0.38897705078125,0.3514404296875,-0.63360595703125,-0.3456697791034353,63.23159121203401,-96.36552491494407,0.6666765748962244,,,,3,0,3,3
1788940177.3582351,1143928894.0,-8.8515625,-0.12109375,4.41015625,-0.001953125,0.0078125,0.017578125,15.875,-1.5625,-39.8125,15.875,-1.5625,-39.8125,0.046913706744400284,-0.5236480514352155,0.025441770388555218,0.8502614531231545,-0.7466412074330143,63.23519904859158,173.224086610976,0.5689697265625,0.38897705078125,0.3514404296875,-0.63360595703125,-0.3456697791034353,63.23159121203401,-96.36552491494407,0.6667873788130559,,,,3,0,3,3
1788940177.3621702,1143932347.0,-8.81640625,-0.2734375,4.33203125,-0.001953125,0.0078125,0.017578125,12.375,-1.125,-35.125,12.375,-1.125,-35.125,0.046894215866554206,-0.5236880321196212,0.025287487151250967,0.8502425068923073,-0.7781384143802789,63.239357570989306,173.20713503958166,0.5689697265625,0.38897705078125,0.3514404296875,-0.63360595703125,-0.3456697791034353,63.23159121203401,-96.36552491494407,0.6673626865389666,,,,3,0,3,3
1788940177.3667235,1143936254.0,-8.77734375,-0.16015625,4.33203125,0.0,0.001953125,0.01953125,12.375,-1.125,-35.125,12.375,-1.125,-35.125,0.04684873990515449,-0.523722012981672,0.025117381831371636,0.8502291254818679,-0.8094704984185016,63.2426063348926,173.19382373820795,0.56903076171875,0.3890380859375,0.3514404296875,-0.633544921875,-0.3254038819719503,63.24084821324088,-96.34645979131462,0.0,,,,3,0,3,3
1788940177.3667235,1143939836.0,-8.77734375,-0.19921875,4.296875,-0.0078125,-0.005859375,0.029296875,13.125,-2.0,-34.75,13.125,-2.0,-34.75,0.04682388796653407,-0.5237757922557418,0.024982875823048933,0.8502013284382574,-0.8362647472392513,63.24877748747238,173.180397068624,0.56903076171875,0.3890380859375,0.3514404296875,-0.633544921875,-0.3254038819719503,63.24084821324088,-96.34645979131462,0.0,,,,3,0,3,3
1788940177.3759334,1143944419.0,-8.77734375,-0.19921875,4.296875,0.0,-0.013671875,0.03515625,13.125,-2.0,-34.75,13.125,-2.0,-34.75,0.04679058814577288,-0.523828636359679,0.024832695765500092,0.850175004226512,-0.8653069096035347,63.25470470395342,173.16673078431631,0.569091796875,0.38909912109375,0.35137939453125,-0.63348388671875,-0.2952295691009057,63.241264445072915,-96.31587681596204,0.0,,,,3,0,3,3
1788940177.3739803,1143948372.0,-8.81640625,-0.12109375,4.296875,0.0,-0.013671875,0.03515625,13.125,-2.0,-34.75,13.125,-2.0,-34.75,0.04673249087020878,-0.5238969970623116,0.024730374992552574,0.8501390588126662,-0.8810069313043792,63.26312474552878,173.16451363764364,0.569091796875,0.38909912109375,0.35137939453125,-0.63348388671875,-0.2952295691009057,63.241264445072915,-96.31587681596204,0.0,,,,3,0,3,3
1788940177.3648658,1143952355.0,-8.85546875,-0.04296875,4.296875,0.005859375,-0.009765625,0.04296875,13.25,-0.9375,-33.9375,13.25,-0.9375,-33.9375,0.0466237095483608,-0.5239379597233202,0.024610258868313962,0.8501232729594862,-0.8932315117854198,63.26777677281308,173.17143582332557,0.569091796875,0.38909912109375,0.35137939453125,-0.63348388671875,-0.2952295691009057,63.241264445072915,-96.31587681596204,0.0,,,,3,0,3,3
1788940177.37372,1143956261.0,-8.89453125,-0.12109375,4.33203125,0.01171875,-0.015625,0.04296875,13.25,-0.9375,-33.9375,13.25,-0.9375,-33.9375,0.04654507930301785,-0.5239579297868776,0.0244909461439083,0.8501187193346006,-0.9088999777374519,63.26958620420423,173.17229722370655,0.56927490234375,0.38909912109375,0.3511962890625,-0.63336181640625,-0.23653332718794198,63.21902956318045,-96.24095740625813,0.9869687028893687,,,,3,0,3,3
1788940177.3926194,1143959644.0,-8.8125,-0.04296875,4.37109375,0.009765625,-0.03125,0.044921875,13.3125,-2.3125,-33.75,13.3125,-2.3125,-33.75,0.046452969198301934,-0.5240126232023994,0.024573696171540253,0.8500876577351717,-0.8797677998793904,63.277690741575846,173.202309505281,0.56927490234375,0.38909912109375,0.3511962890625,-0.63336181640625,-0.23653332718794198,63.21902956318045,-96.24095740625813,0.9864702106779448,,,,3,0,3,3
1788940177.3926194,1143964727.0,-8.7734375,0.109375,4.296875,0.0078125,-0.03515625,0.044921875,13.3125,-2.3125,-33.75,13.3125,-2.3125,-33.75,0.046255003724863186,-0.5240290084735537,0.02481197121970964,0.8500814308010908,-0.8020569732328957,63.28197804686254,173.27671141869106,0.56939697265625,0.38916015625,0.35101318359375,-0.63336181640625,-0.18604900051102877,63.21324902046496,-96.20494641790694,0.46261565965005436,,,,3,0,3,3
1788940177.3988867,1143968933.0,-8.85546875,0.109375,4.296875,0.0078125,-0.037109375,0.04296875,13.3125,-2.3125,-33.75,13.3125,-2.3125,-33.75,0.04610644351514803,-0.5240563911027959,0.024985181739619056,0.8500675476126213,-0.7452252680464064,63.287152957574435,173.33155102664935,0.56939697265625,0.38916015625,0.35101318359375,-0.63336181640625,-0.18604900051102877,63.21324902046496,-96.20494641790694,0.46058121636395366,,,,3,0,3,3
1788940177.4028218,1143971486.0,-8.8515625,0.1875,4.44921875,0.0078125,-0.037109375,0.04296875,14.0625,-1.75,-32.875,14.0625,-1.75,-32.875,0.04595082300195513,-0.5240076342971343,0.02507356606974243,0.8501034274418083,-0.7043390380996745,63.281424921668794,173.37797393657576,0.56939697265625,0.38916015625,0.35101318359375,-0.63336181640625,-0.18604900051102877,63.21324902046496,-96.20494641790694,0.46037799762879733,,,,3,0,3,3
1788940177.4072278,1143975393.0,-8.81640625,0.22265625,4.48828125,0.015625,-0.041015625,0.03515625,14.0625,-1.75,-32.875,14.0625,-1.75,-32.875,0.04575405959032988,-0.5238869097410874,0.02522009768942122,0.8501841085938235,-0.6440482782390753,63.26649605188665,173.44227050751851,0.569580078125,0.38909912109375,0.35076904296875,-0.63330078125,-0.131883282668179,63.178386583280506,-96.13671998884615,1.1678501863357422,,,,3,0,3,3
1788940177.4095366,1143979575.0,-8.7734375,0.30078125,4.44921875,-0.001953125,-0.041015625,0.0390625,14.0625,-1.75,-32.875,14.0625,-1.75,-32.875,0.045522577958833126,-0.5237804239770695,0.025378446229012648,0.8502574297360679,-0.57689094792394,63.253568999540704,173.51536827139657,0.569580078125,0.38909912109375,0.35076904296875,-0.63330078125,-0.131883282668179,63.178386583280506,-96.13671998884615,1.1679954625614746,,,,3,0,3,3
1788940177.4134717,1143983529.0,-8.7734375,0.30078125,4.44921875,-0.001953125,-0.041015625,0.0390625,12.5625,-1.875,-34.125,12.5625,-1.875,-34.125,0.04529430613182381,-0.5236809378563632,0.025515170735400362,0.8503268061282439,-0.5150285782211781,63.24138577375205,173.5847161602848,0.569580078125,0.38909912109375,0.35076904296875,-0.63330078125,-0.131883282668179,63.178386583280506,-96.13671998884615,1.1693376683904935,,,,3,0,3,3
1788940177.413092,1143988911.0,-8.734375,0.0703125,4.48828125,-0.015625,-0.0390625,0.02734375,12.5625,-1.875,-34.125,12.5625,-1.875,-34.125,0.045063839734892454,-0.5234728993964942,0.025396726339189393,0.8504706815858076,-0.506125668803045,63.21268963749913,173.6223676493808,0.56976318359375,0.3890380859375,0.3505859375,-0.63330078125,-0.09309136404346442,63.15839325352176,-96.0986477510343,0.9718062784226285,,,,3,0,3,3
1788940177.415045,1143991718.0,-8.69921875,0.0703125,4.48828125,-0.015625,-0.046875,0.025390625,12.5625,-1.875,-34.125,12.5625,-1.875,-34.125,0.04495153923792188,-0.5233506188827438,0.025338424678183927,0.8505536156351454,-0.5015625699065389,63.19589651947757,173.64095486172818,0.56976318359375,0.3890380859375,0.3505859375,-0.63330078125,-0.09309136404346442,63.15839325352176,-96.0986477510343,0.9738734169014307,,,,3,0,3,3
1788940177.4265547,1143995324.0,-8.69921875,0.109375,4.44921875,-0.0234375,-0.046875,0.021484375,12.5625,-1.875,-34.125,12.5625,-1.875,-34.125,0.04475685500726781,-0.5232149609498049,0.025279673632800242,0.8506490855042235,-0.48590155447966377,63.17735309337493,173.67752843019767,0.5699462890625,0.388916015625,0.35052490234375,-0.63330078125,-0.08280830283639941,63.14623943389385,-96.08293768925233,0.1414495005241057,,,,3,0,3,3
1788940177.426191,1143999454.0,-8.77734375,0.1484375,4.48828125,-0.0234375,-0.046875,0.021484375,12.5625,-1.875,-34.125,12.5625,-1.875,-34.125,0.04451890849444986,-0.5230674091953388,0.025262406820821204,0.8507528213445772,-0.45536902415741154,63.15754187755978,173.72910772211003,0.5699462890625,0.388916015625,0.35052490234375,-0.63330078125,-0.08280830283639941,63.14623943389385,-96.08293768925233,0.17288444727041324,,,,3,0,3,3
1788940177.4329925,1144003060.0,-8.7734375,0.1484375,4.5234375,-0.015625,-0.04296875,0.017578125,16.1875,-3.5625,-40.3125,16.1875,-3.5625,-40.3125,0.0444442380370906,-0.5229660334261983,0.02542043558979059,0.8508143387615164,-0.40962091486612284,63.1451252783559,173.76775211480071,0.5699462890625,0.388916015625,0.35052490234375,-0.63330078125,-0.08280830283639941,63.14623943389385,-96.08293768925233,0.17361789821939558,,,,3,0,3,3
1788940177.4370735,1144006766.0,-8.734375,0.0703125,4.5625,-0.005859375,-0.03125,0.0078125,16.1875,-3.5625,-40.3125,16.1875,-3.5625,-40.3125,0.04441387809529036,-0.5228491507604194,0.025569499033189346,0.8508832902935847,-0.3714695175505637,63.13053130525832,173.79582449484425,0.57012939453125,0.38873291015625,0.35040283203125,-0.63330078125,-0.07154312148209609,63.11546553546335,-96.05526721232447,0.5241803671924075,,,,3,0,3,3
1788940177.4419613,1144010949.0,-8.7734375,0.0703125,4.5625,-0.01953125,-0.033203125,0.0078125,16.125,-0.75,-40.375,16.125,-0.75,-40.375,0.044319098379452984,-0.5227488795712353,0.02535591717810558,0.8509562291269203,-0.4031794865129111,63.11555589248715,173.78965524463177,0.57012939453125,0.38873291015625,0.35040283203125,-0.63330078125,-0.07154312148209609,63.11546553546335,-96.05526721232447,0.5314464801801729,,,,3,0,3,3
1788940177.4460702,1144014455.0,-8.77734375,0.1484375,4.6015625,-0.017578125,-0.02734375,0.00390625,16.125,-0.75,-40.375,16.125,-0.75,-40.375,0.04422685049178969,-0.5226590478193006,0.02519711515063576,0.8510209226665842,-0.4235924693425013,63.10238327673294,173.79002505972068,0.5701904296875,0.38861083984375,0.350341796875,-0.63330078125,-0.07332889521920104,63.09248454719046,-96.04168536367759,1.0867415688890685,,,,3,0,3,3
1788940177.44707,1144018408.0,-8.7734375,0.26171875,4.6015625,-0.017578125,-0.02734375,0.00390625,16.125,-0.75,-40.375,16.125,-0.75,-40.375,0.044084475487203546,-0.5225500539949585,0.025056271571262796,0.8510993968660954,-0.43315706225665407,63.086798011361175,173.80389862318304,0.5701904296875,0.38861083984375,0.350341796875,-0.63330078125,-0.07332889521920104,63.09248454719046,-96.04168536367759,1.0917455867925898,,,,3,0,3,3
1788940177.4531236,1144023168.0,-8.6953125,-0.08203125,4.6015625,-0.017578125,-0.015625,-0.0078125,17.0625,-4.75,-41.375,17.0625,-4.75,-41.375,0.04413513719975064,-0.5224498424837641,0.02521198833355551,0.8511536919953516,-0.4046685634586163,63.07445098124404,173.81502151919133,0.5701904296875,0.38861083984375,0.350341796875,-0.63330078125,-0.07332889521920104,63.09248454719046,-96.04168536367759,1.0890772822077643,,,,3,0,2,3
1788940177.4570692,1144026674.0,-8.62109375,-0.16015625,4.6015625,-0.021484375,-0.001953125,-0.0078125,17.0625,-4.75,-41.375,17.0625,-4.75,-41.375,0.04418961346728777,-0.522382790025912,0.025298102593543363,0.8511894646619647,-0.392230386988243,63.06604921632018,173.81562926926978,0.57025146484375,0.38848876953125,0.350341796875,-0.63330078125,-0.08491536655342158,63.07832734567126,-96.03951559760777,1.228550731101864,,,,3,0,2,3
1788940177.4584892,1144030280.0,-8.66015625,-0.04296875,4.48828125,-0.01953125,-0.005859375,-0.001953125,17.0625,-4.75,-41.375,17.0625,-4.75,-41.375,0.04420873861704033,-0.5223521493600121,0.02543905789609007,0.8512030743731047,-0.36393548013301213,63.06294866453778,173.83053162339795,0.57025146484375,0.38848876953125,0.350341796875,-0.63330078125,-0.08491536655342158,63.07832734567126,-96.03951559760777,1.2273959451021088,,,,3,0,2,3
1788940177.4624243,1144034233.0,-8.65625,-0.04296875,4.5234375,-0.01953125,-0.005859375,-0.001953125,13.0,-2.75,-33.5,13.0,-2.75,-33.5,0.04422665461262562,-0.5222352814183899,0.02549957545100173,0.8512720396650234,-0.35133570995237834,63.04769187884013,173.83640236459985,0.57025146484375,0.38848876953125,0.350341796875,-0.63330078125,-0.08491536655342158,63.07832734567126,-96.03951559760777,1.2271783191783472,,,,3,0,3,3
1788940177.4604712,1144038716.0,-8.65625,-0.04296875,4.640625,-0.009765625,0.0,-0.001953125,13.0,-2.75,-33.5,13.0,-2.75,-33.5,0.044243772847415645,-0.5220991206018191,0.025536654554206097,0.85135355529017,-0.34335389352323786,63.02967785516425,173.83964310218568,0.5703125,0.388427734375,0.35040283203125,-0.63330078125,-0.09750754071198683,63.082766525799215,-96.04931502454754,0.8063822845143266,,,,3,0,3,3
1788940177.4624243,1144042322.0,-8.734375,-0.0078125,4.640625,-0.015625,0.009765625,0.001953125,13.0,-2.75,-33.5,13.0,-2.75,-33.5,0.04423494034049828,-0.522010431106703,0.025591210543113342,0.8514067593176629,-0.3289879407782855,63.018172346280366,173.8500538909556,0.5703125,0.388427734375,0.35040283203125,-0.63330078125,-0.09750754071198683,63.082766525799215,-96.04931502454754,0.8073424647033175,,,,3,0,3,3
1788940177.4754913,1144045829.0,-8.8125,0.03125,4.6015625,-0.015625,0.015625,-0.001953125,13.0,-2.75,-33.5,13.0,-2.75,-33.5,0.044214906979767286,-0.5219564565502807,0.025694571569087065,0.8514377772087204,-0.3032483192321985,63.01168036016815,173.86876173767163,0.5703125,0.388427734375,0.3504638671875,-0.63323974609375,-0.10189671173516306,63.08557672231989,-96.04218267582065,1.0514688495792208,,,,3,0,3,3
1788940177.4825213,1144049611.0,-8.77734375,-0.0078125,4.5625,-0.017578125,0.02734375,0.001953125,12.9375,-2.375,-34.1875,12.9375,-2.375,-34.1875,0.044175846199895286,-0.5218830876625719,0.025650037240397647,0.8514861202708296,-0.30643677897427135,63.00152852014457,173.8724242884823,0.5703125,0.388427734375,0.3504638671875,-0.63323974609375,-0.10189671173516306,63.08557672231989,-96.04218267582065,1.0532806190781172,,,,3,0,3,3
1788940177.484489,1144053764.0,-8.77734375,-0.12109375,4.5625,-0.017578125,0.02734375,0.001953125,12.9375,-2.375,-34.1875,12.9375,-2.375,-34.1875,0.04421586827361484,-0.5218478740932069,0.025482788107129423,0.851510646326573,-0.34703591316315746,62.995583686374246,173.8423682996739,0.5703125,0.388427734375,0.3504638671875,-0.63323974609375,-0.10189671173516306,63.08557672231989,-96.04218267582065,1.053299969439403,,,,3,0,3,3
1788940177.4864867,1144057671.0,-8.6953125,-0.16015625,4.48828125,-0.025390625,0.0234375,0.001953125,12.9375,-2.375,-34.1875,12.9375,-2.375,-34.1875,0.044266468468520365,-0.5218435696623225,0.02528433834056482,0.8515165710695771,-0.3962336943553385,62.99354744406733,173.80548213188854,0.5703125,0.38848876953125,0.35064697265625,-0.6331787109375,-0.11711266222569579,63.1158101101885,-96.05844807961624,0.0,,,,3,0,3,3
1788940177.4918325,1144061254.0,-8.69921875,-0.19921875,4.41015625,-0.029296875,0.029296875,0.00390625,13.3125,-1.3125,-33.3125,13.3125,-1.3125,-33.3125,0.04424928522689399,-0.5219007781027726,0.025067664628378086,0.8514888083602208,-0.4414384326712337,62.99965565903589,173.77986408354008,0.5703125,0.38848876953125,0.35064697265625,-0.6331787109375,-0.11711266222569579,63.1158101101885,-96.05844807961624,0.0,,,,3,0,3,3
1788940177.4961083,1144065936.0,-8.7734375,-0.234375,4.41015625,-0.02734375,0.025390625,0.01171875,13.3125,-1.3125,-33.3125,13.3125,-1.3125,-33.3125,0.04422070785703515,-0.5219814011873021,0.02480065109979753,0.8514486910649341,-0.496364701708282,63.008538007138036,173.7497080602247,0.5703125,0.38848876953125,0.35076904296875,-0.633056640625,-0.12589537909125284,63.12143528058143,-96.04419941606967,0.8522543569243362,,,,3,0,3,3
1788940177.50203,1144069219.0,-8.85546875,-0.16015625,4.44921875,-0.015625,0.03515625,0.01953125,12.9375,-2.875,-34.1875,12.9375,-2.875,-34.1875,0.04429341956665933,-0.5221030470890342,0.02483212302281026,0.8513694068203401,-0.5013231174495009,63.02504953958132,173.73625649294854,0.5703125,0.38848876953125,0.35076904296875,-0.633056640625,-0.12589537909125284,63.12143528058143,-96.04419941606967,0.8479291618289055,,,,3,0,3,3
1788940177.5030694,1144073572.0,-8.85546875,-0.04296875,4.5234375,-0.015625,0.03515625,0.01953125,12.9375,-2.875,-34.1875,12.9375,-2.875,-34.1875,0.04428380220983125,-0.5221522294804616,0.025040185444655968,0.851333649765661,-0.45620690591953966,63.033179364697496,173.76491437854762,0.5703125,0.38848876953125,0.35076904296875,-0.633056640625,-0.12589537909125284,63.12143528058143,-96.04419941606967,0.8451654287325407,,,,3,0,3,3
1788940177.5070052,1144077279.0,-8.8125,-0.16015625,4.48828125,-0.017578125,0.029296875,0.02734375,12.9375,-2.875,-34.1875,12.9375,-2.875,-34.1875,0.044404099224567575,-0.522207658949474,0.025072337456449555,0.851292437885498,-0.46616787223401485,63.04078849178831,173.74232664791717,0.57037353515625,0.3885498046875,0.35089111328125,-0.6329345703125,-0.11986213014400621,63.142288507197414,-96.02949156845614,0.26918011872684416,,,,3,0,3,3
1788940177.5121052,1144081061.0,-8.7734375,-0.19921875,4.41015625,-0.01953125,0.033203125,0.029296875,13.5,-2.9375,-34.4375,13.5,-2.9375,-34.4375,0.0444908885584393,-0.5223321525633536,0.025071116628406196,0.8512115614492197,-0.4800736153438848,63.05743965306012,173.72148396133602,0.57037353515625,0.3885498046875,0.35089111328125,-0.6329345703125,-0.11986213014400621,63.142288507197414,-96.02949156845614,0.2576713540461926,,,,3,0,3,3
1788940177.5121052,1144084968.0,-8.73828125,-0.12109375,4.33203125,-0.021484375,0.02734375,0.0390625,13.5,-2.9375,-34.4375,13.5,-2.9375,-34.4375,0.04447848835512432,-0.522480883863724,0.025154902014524312,0.8511184529636661,-0.46299056366183783,63.078026039496066,173.7328614066176,0.5704345703125,0.388671875,0.3509521484375,-0.63275146484375,-0.08974066274103401,63.15810206187561,-95.98534205030231,0.617310071373179,,,,3,0,3,3
1788940177.5081701,1144088950.0,-8.73828125,-0.08203125,4.33203125,-0.01171875,0.02734375,0.044921875,13.5,-2.9375,-34.4375,13.5,-2.9375,-34.4375,0.04444174519512917,-0.5226240401688205,0.02529651516131852,0.8510282781684304,-0.4301137743699589,63.09830144691969,173.75723576735513,0.5704345703125,0.388671875,0.3509521484375,-0.63275146484375,-0.08974066274103401,63.15810206187561,-95.98534205030231,0.6147840760013199,,,,3,0,3,3
1788940177.5121052,1144092704.0,-8.6953125,-0.12109375,4.37109375,-0.01171875,0.02734375,0.044921875,14.25,-2.0,-40.0625,14.25,-2.0,-40.0625,0.044358806507117814,-0.5226891945469071,0.025138767816406248,0.85099726470879,-0.4541852227073597,63.10593636513603,173.75333488946634,0.5704345703125,0.388671875,0.3509521484375,-0.63275146484375,-0.08974066274103401,63.15810206187561,-95.98534205030231,0.617500583311578,,,,3,0,3,3
1788940177.5275054,1144096810.0,-8.6953125,-0.08203125,4.41015625,-0.015625,0.0234375,0.041015625,14.25,-2.0,-40.0625,14.25,-2.0,-40.0625,0.044254156853765325,-0.5227301689780508,0.024953061690020505,0.8509830108490032,-0.48098313384475233,63.110134125754016,173.75080860122893,0.570556640625,0.38873291015625,0.35101318359375,-0.63250732421875,-0.05693771538472608,63.16352835037341,-95.92098871957701,1.1925547605452163,,,,3,0,3,3
1788940177.5309713,1144100793.0,-8.734375,0.109375,4.44921875,-0.005859375,0.021484375,0.05078125,16.0625,-3.25,-41.3125,16.0625,-3.25,-41.3125,0.044103069706508694,-0.5227459051181916,0.025186845438290053,0.8509743008701809,-0.41085111342661546,63.114030793795926,173.81408926064628,0.570556640625,0.38873291015625,0.35101318359375,-0.63250732421875,-0.05693771538472608,63.16352835037341,-95.92098871957701,1.1929415932145515,,,,3,0,2,3
1788940177.5309713,1144104299.0,-8.69921875,0.0703125,4.37109375,-0.0078125,0.015625,0.04296875,16.0625,-3.25,-41.3125,16.0625,-3.25,-41.3125,0.043989902382609546,-0.522795376523953,0.02537933403787775,0.8509440476184909,-0.35519655095526514,63.122115339919006,173.86322464044608,0.5706787109375,0.38885498046875,0.35101318359375,-0.63232421875,-0.01089066746467587,63.17593254375045,-95.86430609731848,1.1767806090525963,,,,3,0,2,3
1788940177.5309713,1144108652.0,-8.6953125,0.0703125,4.44921875,-0.0078125,0.015625,0.04296875,16.0625,-3.25,-41.3125,16.0625,-3.25,-41.3125,0.04385147448859656,-0.5227765453521596,0.025616389982593583,0.8509556582919565,-0.2854291914060855,63.121336577481514,173.92475543802627,0.5706787109375,0.38885498046875,0.35101318359375,-0.63232421875,-0.01089066746467587,63.17593254375045,-95.86430609731848,1.1782010234905969,,,,3,0,2,3
1788940177.5442648,1144112435.0,-8.77734375,-0.08203125,4.41015625,-0.01953125,0.01171875,0.0390625,16.1875,-4.5625,-40.8125,16.1875,-4.5625,-40.8125,0.04382303053855101,-0.5228200415821886,0.02580102285479374,0.8509248223750805,-0.24258161273067397,63.12849889004238,173.95466101924433,0.5706787109375,0.38885498046875,0.35101318359375,-0.63232421875,-0.01089066746467587,63.17593254375045,-95.86430609731848,1.1782753626758984,,,,3,0,2,3
1788940177.5482595,1144116141.0,-8.73828125,-0.08203125,4.37109375,-0.0078125,0.017578125,0.03515625,16.1875,-4.5625,-40.8125,16.1875,-4.5625,-40.8125,0.04381288418634497,-0.5228786831549657,0.025993764391134037,0.8508834456576182,-0.2006438791147652,63.13774071572545,173.98147960944323,0.57086181640625,0.38897705078125,0.35101318359375,-0.6322021484375,0.03579151853762319,63.199807236193806,-95.82521139260356,0.0,,,,3,0,2,3
1788940177.5521905,1144120500.0,-8.77734375,-0.04296875,4.33203125,-0.017578125,0.013671875,0.037109375,16.375,-3.25,-41.3125,16.375,-3.25,-41.3125,0.043756652804470116,-0.5230337726719342,0.026068334556204557,0.8507887340070849,-0.17957508956188287,63.15910912726316,174.00127793725866,0.57086181640625,0.38897705078125,0.35101318359375,-0.6322021484375,0.03579151853762319,63.199807236193806,-95.82521139260356,0.0,,,,3,0,2,3
1788940177.5531962,1144123877.0,-8.8125,-0.04296875,4.33203125,-0.017578125,0.013671875,0.037109375,16.375,-3.25,-41.3125,16.375,-3.25,-41.3125,0.04371103191236603,-0.523155414964194,0.026119538101870676,0.8507147155258001,-0.164397925233501,63.17581804528204,174.01619203241333,0.57086181640625,0.38897705078125,0.35101318359375,-0.6322021484375,0.03579151853762319,63.199807236193806,-95.82521139260356,0.0,,,,3,0,2,3
1788940177.557554,1144128560.0,-8.8515625,0.1484375,4.41015625,0.0,0.0078125,0.052734375,16.375,-3.25,-41.3125,16.375,-3.25,-41.3125,0.043528027507637686,-0.5232132465781435,0.026391721455854604,0.850680131697602,-0.08218414923299085,63.185512842267244,174.0910852013189,0.57098388671875,0.3890380859375,0.35101318359375,-0.63201904296875,0.07305898135553336,63.202399648945054,-95.76794590803482,0.07630409260829588,,,,3,0,2,3
1788940177.5595505,1144131966.0,-8.89453125,0.1484375,4.41015625,0.01171875,0.0078125,0.05078125,16.375,-3.25,-41.3125,16.375,-3.25,-41.3125,0.043409902796303995,-0.5232658045747755,0.026597725595062866,0.8506474234928935,-0.02277519697539349,63.194003623447216,174.14326754402936,0.57098388671875,0.3890380859375,0.35101318359375,-0.63201904296875,0.07305898135553336,63.202399648945054,-95.76794590803482,0.11360436459714456,,,,3,0,2,3
1788940177.565798,1144135472.0,-8.93359375,0.03125,4.41015625,-0.005859375,0.00390625,0.04296875,16.375,-3.25,-41.3125,16.375,-3.25,-41.3125,0.04332839410314753,-0.5233603411851693,0.02672674173899303,0.8505893749718503,0.014520842587394847,63.20759076224473,174.17676625129678,0.57110595703125,0.38916015625,0.35089111328125,-0.63189697265625,0.13334638398620496,63.203106022260755,-95.70695892359815,0.28628807063487743,,,,3,0,2,3
1788940177.571854,1144139655.0,-8.8515625,0.109375,4.41015625,-0.01171875,0.00390625,0.041015625,13.0,-3.3125,-33.875,13.0,-3.3125,-33.875,0.04323169642694915,-0.5233959364076575,0.02695342054144634,0.8505652398829354,0.07586241071997016,63.21391133765558,174.2273438613647,0.57110595703125,0.38916015625,0.35089111328125,-0.63189697265625,0.13334638398620496,63.203106022260755,-95.70695892359815,0.3000674971211648,,,,3,0,0,3
1788940177.571854,1144144008.0,-8.81640625,0.1875,4.41015625,-0.01171875,0.00390625,0.041015625,13.0,-3.3125,-33.875,13.0,-3.3125,-33.875,0.043110187943123435,-0.5234181187205517,0.027191797109182143,0.8505501695141328,0.14326432027950906,63.21848375563003,174.28505438144708,0.57110595703125,0.38916015625,0.35089111328125,-0.63189697265625,0.13334638398620496,63.203106022260755,-95.70695892359815,0.3177945288791437,,,,3,0,0,3
1788940177.5769386,1144147514.0,-8.81640625,0.0703125,4.37109375,-0.01171875,-0.001953125,0.041015625,13.0,-3.3125,-33.875,13.0,-3.3125,-33.875,0.043042767203311794,-0.5234529404311749,0.02737450352506718,0.850526293480804,0.19125140297375012,63.22437187577127,174.32349823213258,0.57122802734375,0.38922119140625,0.35089111328125,-0.6317138671875,0.17064736897548433,63.2056816849663,-95.64966470137134,0.8268475182853383,,,,3,0,0,3
1788940177.5821917,1144151297.0,-8.8125,0.109375,4.48828125,-0.0234375,-0.009765625,0.033203125,13.4375,-2.5625,-35.125,13.4375,-2.5625,-35.125,0.04286489756162905,-0.523367161098934,0.027487535618240223,0.8505844171073847,0.2406404683454372,63.213547665374655,174.37816288026443,0.57122802734375,0.38922119140625,0.35089111328125,-0.6317138671875,0.17064736897548433,63.2056816849663,-95.64966470137134,0.8330723109750218,,,,3,0,0,3
1788940177.584191,1144155580.0,-8.85546875,0.109375,4.44921875,-0.005859375,0.001953125,0.03125,13.4375,-2.5625,-35.125,13.4375,-2.5625,-35.125,0.042664210865418946,-0.5234011824544156,0.02766673933202462,0.8505677626452135,0.3056799160560462,63.219231256906035,174.44506333686252,0.5714111328125,0.38916015625,0.350830078125,-0.63165283203125,0.19506571434940037,63.19731067248184,-95.61618539282584,0.392167860520301,,,,3,0,0,3
1788940177.5923164,1144159839.0,-8.73828125,-0.0078125,4.41015625,-0.013671875,0.0,0.0390625,13.375,-2.6875,-33.0625,13.375,-2.6875,-33.0625,0.0427096563357401,-0.523412372971184,0.027851042921241354,0.8505525806700936,0.33930204506644357,63.22195280849025,174.45955715666275,0.5714111328125,0.38916015625,0.350830078125,-0.63165283203125,0.19506571434940037,63.19731067248184,-95.61618539282584,0.40048362991905695,,,,3,0,3,3
1788940177.5853503,1144163216.0,-8.73828125,-0.0078125,4.41015625,-0.013671875,0.0,0.0390625,13.375,-2.6875,-33.0625,13.375,-2.6875,-33.0625,0.04275933827294217,-0.5234206547171039,0.027985231587269555,0.8505405834050398,0.3615676198223511,63.22395863344816,174.4665120673942,0.5714111328125,0.38916015625,0.350830078125,-0.63165283203125,0.19506571434940037,63.19731067248184,-95.61618539282584,0.4064396442333192,,,,3,0,3,3
1788940177.5923164,1144167299.0,-8.85546875,0.1875,4.37109375,-0.0234375,0.0,0.0390625,13.375,-2.6875,-33.0625,13.375,-2.6875,-33.0625,0.042600792090396356,-0.5234788056776761,0.028153208522176527,0.850507207123756,0.4182773133638308,63.23278814764796,174.52254341614037,0.571533203125,0.38916015625,0.350830078125,-0.63153076171875,0.21801975777205077,63.196121637823374,-95.57700839331126,0.6054869268498846,,,,3,0,3,3
1788940177.6080604,1144175664.0,-8.8515625,0.0703125,4.44921875,-0.01953125,0.00390625,0.029296875,14.0,-1.8125,-33.25,14.0,-1.8125,-33.25,0.0423244171678276,-0.5235173113924453,0.027751616550347854,0.8505105032641701,0.3678217549458351,63.235255560128756,174.52866007576046,0.5716552734375,0.38922119140625,0.35076904296875,-0.63140869140625,0.25963816745863855,63.19585941302711,-95.5269484429219,0.6908392739025128,,,,3,0,3,3
1788940177.6050806,1144179371.0,-8.85546875,0.1875,4.48828125,-0.01171875,0.001953125,0.017578125,14.0,-1.8125,-33.25,14.0,-1.8125,-33.25,0.0421210151247024,-0.5234835359094496,0.027691695001552188,0.8505433426607639,0.3824770258608156,63.230242015888145,174.5652153660735,0.5716552734375,0.38922119140625,0.35076904296875,-0.63140869140625,0.25963816745863855,63.19585941302711,-95.5269484429219,0.6948458291019594,,,,3,0,3,3
1788940177.6090157,1144183124.0,-8.85546875,0.26171875,4.41015625,-0.01171875,0.001953125,0.017578125,12.9375,-3.3125,-34.25,12.9375,-3.3125,-34.25,0.042042012955415355,-0.5235039302768135,0.0278709744762736,0.8505288430812494,0.43153143506074443,63.23408532719028,174.60595332875735,0.5716552734375,0.38922119140625,0.35076904296875,-0.63140869140625,0.25963816745863855,63.19585941302711,-95.5269484429219,0.702979088733775,,,,3,0,3,3
1788940177.6050806,1144188807.0,-8.7734375,0.1875,4.37109375,-0.01953125,0.001953125,0.01953125,12.9375,-3.3125,-34.25,12.9375,-3.3125,-34.25,0.04192664376359667,-0.5235423275487181,0.028128027590629913,0.8505024408380333,0.5020509399435097,63.24080293293531,174.6647381250249,0.57171630859375,0.38922119140625,0.35076904296875,-0.63134765625,0.2711153307671387,63.195263026125865,-95.50736451142258,0.777194259131723,,,,3,0,3,3
1788940177.6293447,1144191213.0,-8.77734375,0.1484375,4.41015625,-0.029296875,-0.00390625,0.009765625,12.9375,-3.3125,-34.25,12.9375,-3.3125,-34.25,0.041888874646033504,-0.5235441477465252,0.028223400075816186,0.8505000218867803,0.5277073270389347,63.241621027444076,174.68560047340014,0.57171630859375,0.38922119140625,0.35076904296875,-0.63134765625,0.2711153307671387,63.195263026125865,-95.50736451142258,0.781608866004304,,,,3,0,3,3
1788940177.6248887,1144194919.0,-8.73828125,0.1484375,4.33203125,-0.025390625,-0.00390625,0.00390625,12.9375,-3.3125,-34.25,12.9375,-3.3125,-34.25,0.041843732196413026,-0.5235748287659256,0.02836141432396243,0.8504787657173757,0.5632162988903067,63.246575899418296,174.71342438459675,0.57177734375,0.38916015625,0.350830078125,-0.63128662109375,0.26392762729709107,63.193743715016964,-95.49867121561691,0.8827320275024754,,,,3,0,3,3
1788940177.6271167,1144198572.0,-8.73828125,-0.04296875,4.33203125,-0.025390625,-0.00390625,0.00390625,12.9375,-3.3125,-34.25,12.9375,-3.3125,-34.25,0.04189985040443431,-0.5236395313230852,0.02844220403385104,0.8504334687684407,0.5723931220109426,63.255814299350625,174.71129595469853,0.57177734375,0.38916015625,0.350830078125,-0.63128662109375,0.26392762729709107,63.193743715016964,-95.49867121561691,0.8845061623715296,,,,3,0,3,3
1788940177.6293447,1144202855.0,-8.73828125,-0.0078125,4.33203125,-0.0234375,-0.001953125,0.0078125,16.0625,-3.875,-39.375,16.0625,-3.875,-39.375,0.04192445874317661,-0.5237039511847958,0.02858096375503587,0.8503879348764057,0.5983411747434185,63.26535376826431,174.7237361356835,0.57177734375,0.38916015625,0.350830078125,-0.63128662109375,0.26392762729709107,63.193743715016964,-95.49867121561691,0.8894268677169163,,,,3,0,3,3
1788940177.6293447,1144206561.0,-8.734375,-0.04296875,4.296875,-0.021484375,-0.01171875,0.0078125,16.0625,-3.875,-39.375,16.0625,-3.875,-39.375,0.041963352803917386,-0.5237658659283845,0.028668712779782807,0.8503449297886676,0.6113739150496735,63.27425043976511,174.72631618027071,0.57183837890625,0.38909912109375,0.350830078125,-0.63128662109375,0.26103937328212623,63.18939447700403,-95.49721192319831,0.7109928831038108,,,,3,0,3,3
1788940177.642109,1144210344.0,-8.77734375,-0.08203125,4.2578125,-0.0234375,-0.01953125,0.0078125,16.25,-1.0625,-39.375,16.25,-1.0625,-39.375,0.04192655854883595,-0.5237800524879,0.02845786171060602,0.8503450890143859,0.5704574300765064,63.27482420905127,174.70605852838986,0.57183837890625,0.38909912109375,0.350830078125,-0.63128662109375,0.26103937328212623,63.18939447700403,-95.49721192319831,0.7022314316843896,,,,3,0,3,3
1788940177.6435585,1144214050.0,-8.8125,-0.04296875,4.33203125,-0.015625,-0.03125,0.009765625,16.25,-1.0625,-39.375,16.25,-1.0625,-39.375,0.04188805440766061,-0.5237628875834461,0.028259664457871318,0.8503641689611103,0.5329044663703797,63.27125692734405,174.68820130814683,0.57196044921875,0.38897705078125,0.350830078125,-0.63128662109375,0.2552608589571546,63.180697960186606,-95.49429565369502,0.0,,,,3,0,3,3
1788940177.6458154,1144218404.0,-8.77734375,0.109375,4.33203125,-0.015625,-0.03125,0.009765625,16.25,-1.0625,-39.375,16.25,-1.0625,-39.375,0.04179455441690788,-0.5237433894120951,0.02803516782682599,0.8503882093686062,0.497050656565619,63.26717703078035,174.67881653817398,0.57196044921875,0.38897705078125,0.350830078125,-0.63128662109375,0.2552608589571546,63.180697960186606,-95.49429565369502,0.0,,,,3,0,3,3
1788940177.6458154,1144221886.0,-8.8125,-0.0078125,4.21875,-0.013671875,-0.03125,0.0078125,17.0,-3.875,-39.25,17.0,-3.875,-39.25,0.04179864602003093,-0.5237871037621846,0.02811632889197699,0.8503584039526821,0.5135221128204464,63.27356406310336,174.68825580138886,0.57196044921875,0.38897705078125,0.350830078125,-0.63128662109375,0.2552608589571546,63.180697960186606,-95.49429565369502,0.0,,,,3,0,3,3
1788940177.654251,1144226093.0,-8.77734375,-0.04296875,4.2578125,-0.013671875,-0.0390625,0.005859375,17.0,-3.875,-39.25,17.0,-3.875,-39.25,0.04183151116420523,-0.5238209007996704,0.02821443479059127,0.8503327197212797,0.529943533095628,63.2787404414237,174.69381804614147,0.572021484375,0.38885498046875,0.35076904296875,-0.63128662109375,0.25318769756274856,63.15770593248068,-95.48092306095587,0.8923806967340191,,,,3,0,3,3
1788940177.6619158,1144230352.0,-8.8125,0.0703125,4.296875,-0.01171875,-0.052734375,0.005859375,12.8125,-1.0,-34.375,12.8125,-1.0,-34.375,0.04176070814396186,-0.5237790953801285,0.0280012873784603,0.8503689966145509,0.4937880532138183,63.27174671528605,174.6812569131324,0.572021484375,0.38885498046875,0.35076904296875,-0.63128662109375,0.25318769756274856,63.15770593248068,-95.48092306095587,0.8863815328982437,,,,3,0,3,3
1788940177.6638834,1144233729.0,-8.81640625,0.03125,4.296875,-0.01171875,-0.052734375,0.005859375,12.8125,-1.0,-34.375,12.8125,-1.0,-34.375,0.04171378689760732,-0.5237453748324338,0.02782991026911661,0.8503976942693974,0.46338942586723614,63.26611467975919,174.66899460447422,0.572021484375,0.38885498046875,0.35076904296875,-0.63128662109375,0.25318769756274856,63.15770593248068,-95.48092306095587,0.881851596679202,,,,3,0,3,3
1788940177.6677053,1144238911.0,-8.89453125,0.03125,4.33203125,-0.01171875,-0.05859375,0.00390625,12.8125,-1.0,-34.375,12.8125,-1.0,-34.375,0.041645889114803145,-0.5236829064413172,0.02756502837102023,0.8504481187185476,0.41593777781510094,63.25601944125243,174.64917286608417,0.5721435546875,0.388671875,0.35064697265625,-0.63134765625,0.2525176243731847,63.12754886133491,-95.4733466417505,0.9591324380308356,,,,3,0,3,3
1788940177.6749656,1144241718.0,-8.890625,0.1875,4.37109375,-0.01171875,-0.07421875,0.009765625,12.8125,-1.0,-34.375,12.8125,-1.0,-34.375,0.04156078634527317,-0.5236269515394419,0.027439033666308957,0.8504908089399512,0.4007748918873281,63.24766439104766,174.65151400943213,0.5721435546875,0.388671875,0.35064697265625,-0.63134765625,0.2525176243731847,63.12754886133491,-95.4733466417505,0.9574430644858701,,,,3,0,3,3
1788940177.6749656,1144245424.0,-8.8515625,0.33984375,4.44921875,-0.001953125,-0.072265625,0.00390625,12.8125,-1.0,-34.375,12.8125,-1.0,-34.375,0.041399684381137745,-0.5235127376353669,0.0273362542009766,0.8505722831558322,0.4015442687544175,63.23158996583714,174.67409783294383,0.57232666015625,0.388427734375,0.3504638671875,-0.6314697265625,0.25324166652041075,63.09022640206797,-95.47157897427567,0.5720784253999256,,,,3,0,3,3
1788940177.6730125,1144249854.0,-8.81640625,0.22265625,4.5625,-0.001953125,-0.072265625,0.00390625,12.8125,-1.0,-34.375,12.8125,-1.0,-34.375,0.04128173178153185,-0.5233183075243752,0.027169972430170518,0.8507029800283321,0.38385367078358273,63.204361074228466,174.67978785318817,0.57232666015625,0.388427734375,0.3504638671875,-0.6314697265625,0.25324166652041075,63.09022640206797,-95.47157897427567,0.5664516665519597,,,,3,0,3,3
1788940177.6749656,1144253260.0,-8.7734375,0.03125,4.44921875,-0.013671875,-0.07421875,-0.015625,13.625,-4.8125,-34.3125,13.625,-4.8125,-34.3125,0.04132653253439141,-0.5232155833690549,0.02729823378237337,0.8507598823762358,0.4069213747435235,63.19137542873005,174.68826783615722,0.57232666015625,0.388427734375,0.3504638671875,-0.6314697265625,0.25324166652041075,63.09022640206797,-95.47157897427567,0.5663251894850604,,,,3,0,3,3
1788940177.6749656,1144257266.0,-8.7734375,0.1484375,4.296875,-0.01171875,-0.06640625,-0.03125,13.625,-4.8125,-34.3125,13.625,-4.8125,-34.3125,0.04138351838939777,-0.5231393219090177,0.027432008755983856,0.8507997056733737,0.4292032591604208,63.18198745778564,174.6945278576715,0.57244873046875,0.38818359375,0.350341796875,-0.631591796875,0.2382610855296815,63.05634886158412,-95.48210591785656,0.2929397322410439,,,,3,0,3,3
1788940177.6914353,1144261525.0,-8.7734375,0.0703125,4.37109375,-0.01171875,-0.0703125,-0.025390625,13.4375,-1.5625,-34.6875,13.4375,-1.5625,-34.6875,0.04136074000664821,-0.5230554072864119,0.027179615622507557,0.8508605047768766,0.3788200134781533,63.16912366272501,174.66694178640722,0.57244873046875,0.38818359375,0.350341796875,-0.631591796875,0.2382610855296815,63.05634886158412,-95.48210591785656,0.27168318240924466,,,,3,0,3,3
1788940177.6914353,1144265232.0,-8.77734375,0.0703125,4.44921875,-0.021484375,-0.080078125,-0.01953125,13.4375,-1.5625,-34.6875,13.4375,-1.5625,-34.6875,0.041320494616742566,-0.5229245353563448,0.026944684858591802,0.8509503692959125,0.3351813539089303,63.15004752218995,174.64602793990284,0.572509765625,0.38787841796875,0.3502197265625,-0.63177490234375,0.20306233754857234,63.013330550747675,-95.51157637130228,0.5993781225718638,,,,3,0,3,3
1788940177.6875002,1144269714.0,-8.8125,0.22265625,4.5234375,-0.017578125,-0.08203125,-0.017578125,13.4375,-1.5625,-34.6875,13.4375,-1.5625,-34.6875,0.041169646086901546,-0.5227071071278804,0.02678206508813693,0.8510963878367107,0.3230114173980618,63.119755806574,174.6596456483241,0.572509765625,0.38787841796875,0.3502197265625,-0.63177490234375,0.20306233754857234,63.013330550747675,-95.51157637130228,0.5965028602010479,,,,3,0,3,3
1788940177.6914353,1144272391.0,-8.8515625,0.4140625,4.5625,-0.017578125,-0.08203125,-0.017578125,13.6875,-1.8125,-33.3125,13.6875,-1.8125,-33.3125,0.04108138675123949,-0.5225825934799601,0.026820086529576896,0.8511759134355834,0.3445470015716776,63.10323146829985,174.68517642453514,0.572509765625,0.38787841796875,0.3502197265625,-0.63177490234375,0.20306233754857234,63.013330550747675,-95.51157637130228,0.599534286948942,,,,3,0,3,3
1788940177.7063386,1144277074.0,-8.77734375,0.26171875,4.5234375,-0.03125,-0.07421875,-0.025390625,13.6875,-1.8125,-33.3125,13.6875,-1.8125,-33.3125,0.0409115591219006,-0.522356497696478,0.026773352282540203,0.8513243337600773,0.3599207520178833,63.07250001534522,174.71825224093078,0.5726318359375,0.38751220703125,0.35009765625,-0.6319580078125,0.16508281718894371,62.96600606197788,-95.53953284311423,0.597771737017289,,,,3,0,3,3
1788940177.7083457,1144280857.0,-8.73828125,0.1875,4.640625,-0.0390625,-0.072265625,-0.037109375,13.25,-0.4375,-33.5,13.25,-0.4375,-33.5,0.04087335289413051,-0.5221889364040087,0.026519648237149286,0.8514368984122194,0.31254720625547,63.04840515698475,174.69494639122652,0.5726318359375,0.38751220703125,0.35009765625,-0.6319580078125,0.16508281718894371,62.96600606197788,-95.53953284311423,0.5897869393821302,,,,3,0,3,3
1788940177.7083457,1144284363.0,-8.6953125,0.1484375,4.5625,-0.029296875,-0.056640625,-0.0546875,13.25,-0.4375,-33.5,13.25,-0.4375,-33.5,0.04087609248694254,-0.5220713265220304,0.026270459357124833,0.851516610555362,0.26013251261047693,63.031057364183475,174.66288778966214,0.57269287109375,0.38714599609375,0.35009765625,-0.63214111328125,0.10188353529043073,62.930939309487975,-95.5909354535158,0.35335829942593744,,,,3,0,3,3
1788940177.7224872,1144289193.0,-8.65625,-0.04296875,4.44921875,-0.029296875,-0.056640625,-0.0546875,13.25,-0.4375,-33.5,13.25,-0.4375,-33.5,0.04093187474148485,-0.5219508923821776,0.02589734965307215,0.8515991867378352,0.1741704797957536,63.01255261693311,174.6031826802962,0.57269287109375,0.38714599609375,0.35009765625,-0.63214111328125,0.10188353529043073,62.930939309487975,-95.5909354535158,0.33023395877333445,,,,3,0,3,3
1788940177.7284117,1144292299.0,-8.62109375,-0.16015625,4.48828125,-0.03125,-0.05859375,-0.0625,16.125,-3.75,-38.625,16.125,-3.75,-38.625,0.041100599232159515,-0.521827829077102,0.02587748224909096,0.8516670790020501,0.14929563070065585,62.99593670658142,174.56569456179142,0.57269287109375,0.38714599609375,0.35009765625,-0.63214111328125,0.10188353529043073,62.930939309487975,-95.5909354535158,0.30869606658187204,,,,3,0,3,3
1788940177.7261374,1144296205.0,-8.734375,-0.0078125,4.5234375,-0.03515625,-0.05859375,-0.052734375,16.125,-3.75,-38.625,16.125,-3.75,-38.625,0.04119663750276686,-0.5216978437341824,0.025942722197289336,0.8517400848067236,0.1524110245055907,62.97892042712304,174.55515457522213,0.57269287109375,0.38671875,0.35015869140625,-0.63232421875,0.014397095697290032,62.889591641670464,-95.65392845396879,0.9218217263896923,,,,3,0,3,3
1788940177.7276618,1144299988.0,-8.734375,0.0703125,4.5625,-0.02734375,-0.0546875,-0.041015625,17.5625,-3.5625,-39.75,17.5625,-3.5625,-39.75,0.041236903184402963,-0.5215563439508193,0.02602212061952519,0.8518223683015596,0.16607679683573584,62.960441321213175,174.5586187427102,0.57269287109375,0.38671875,0.35015869140625,-0.63232421875,0.014397095697290032,62.889591641670464,-95.65392845396879,0.9204376214829114,,,,3,0,3,3
1788940177.7364402,1144304871.0,-8.734375,0.109375,4.640625,-0.03125,-0.05859375,-0.0390625,17.5625,-3.5625,-39.75,17.5625,-3.5625,-39.75,0.04126728373788649,-0.5213400089807898,0.026091367642539744,0.8519511998133159,0.17987316581415613,62.93185419946124,174.5637650827293,0.57269287109375,0.38641357421875,0.35015869140625,-0.63250732421875,-0.04563035326817532,62.85887550245145,-95.70659031733747,0.9596652179452916,,,,3,0,3,3
1788940177.738448,1144307747.0,-8.69921875,0.1875,4.71484375,-0.03125,-0.05859375,-0.0390625,17.5625,-3.5625,-39.75,17.5625,-3.5625,-39.75,0.041275387912645164,-0.5212063667218267,0.026122001614483244,0.8520316347841471,0.18718626640621178,62.9141168047386,174.5676361409755,0.57269287109375,0.38641357421875,0.35015869140625,-0.63250732421875,-0.04563035326817532,62.85887550245145,-95.70659031733747,0.959171313260314,,,,3,0,3,3
1788940177.7326312,1144312307.0,-8.66015625,-0.0078125,4.5625,-0.037109375,-0.05078125,-0.0625,16.5625,-2.5625,-39.8125,16.5625,-2.5625,-39.8125,0.04136450086364214,-0.5209849863091093,0.025876345197016697,0.8521701924310917,0.12589339124489354,62.88285842882135,174.5190372919913,0.57269287109375,0.38641357421875,0.35015869140625,-0.63250732421875,-0.04563035326817532,62.85887550245145,-95.70659031733747,0.9506533050431595,,,,3,0,3,3
1788940177.7414854,1144316013.0,-8.62109375,-0.234375,4.5234375,-0.025390625,-0.03515625,-0.076171875,16.5625,-2.5625,-39.8125,16.5625,-2.5625,-39.8125,0.04153512696525077,-0.5208916610239297,0.025606820816685194,0.8522270832538557,0.04712115501000607,62.868613809863376,174.44835021190318,0.57269287109375,0.38604736328125,0.3502197265625,-0.6326904296875,-0.12399436009721845,62.82724451289525,-95.7698907364296,1.0069549809054266,,,,3,0,3,3
1788940177.7375503,1144320496.0,-8.62109375,-0.234375,4.5234375,-0.017578125,-0.029296875,-0.0625,16.5625,-2.5625,-39.8125,16.5625,-2.5625,-39.8125,0.041725447144016777,-0.5207879052612875,0.025313126929035038,0.8522899684962076,-0.039174446401067084,62.852773759383034,174.37049483123943,0.57269287109375,0.38604736328125,0.3502197265625,-0.6326904296875,-0.12399436009721845,62.82724451289525,-95.7698907364296,0.9964177858715141,,,,3,0,3,3
1788940177.7414854,1144323572.0,-8.6953125,-0.12109375,4.6015625,-0.017578125,-0.029296875,-0.0625,16.375,-1.8125,-41.125,16.375,-1.8125,-41.125,0.04180517619744759,-0.5207103272196006,0.025102898397988727,0.8523396780990411,-0.0934359101116159,62.84097107847583,174.3269854139729,0.57269287109375,0.38604736328125,0.3502197265625,-0.6326904296875,-0.12399436009721845,62.82724451289525,-95.7698907364296,0.9915084986676859,,,,3,0,3,3
1788940177.7562957,1144328955.0,-8.6953125,-0.04296875,4.71484375,-0.013671875,-0.03125,-0.04296875,16.375,-1.8125,-41.125,16.375,-1.8125,-41.125,0.04187766323926523,-0.5205161359690262,0.024835071597919377,0.8524625696980596,-0.15726291589114605,62.81313199592697,174.27913404977602,0.57257080078125,0.38580322265625,0.350341796875,-0.6329345703125,-0.21165064538521325,62.818931828051504,-95.86579455166753,0.35190285970961693,,,,3,0,3,3
1788940177.7512827,1144331761.0,-8.69921875,-0.0078125,4.6796875,-0.013671875,-0.01953125,-0.04296875,16.375,-1.8125,-41.125,16.375,-1.8125,-41.125,0.04190565168676608,-0.5204292234251733,0.02469645708474303,0.8525182841260591,-0.18921351224378224,62.80054226702555,174.2562687978854,0.57257080078125,0.38580322265625,0.350341796875,-0.6329345703125,-0.21165064538521325,62.818931828051504,-95.86579455166753,0.3462747423890776,,,,3,0,3,3
1788940177.7582488,1144335168.0,-8.66015625,-0.08203125,4.6015625,-0.0078125,-0.0078125,-0.048828125,16.375,-1.8125,-41.125,16.375,-1.8125,-41.125,0.04197106236864816,-0.5203627523201738,0.024500481411592834,0.8525612953518479,-0.2385862591685452,62.79029142184997,174.21767340114158,0.572509765625,0.3856201171875,0.35040283203125,-0.633056640625,-0.26415743191636226,62.805072606489496,-95.9131636602839,0.5522360365399995,,,,3,0,3,3
1788940177.7562957,1144339497.0,-8.66015625,-0.16015625,4.6015625,-0.0078125,-0.0078125,-0.048828125,16.375,-1.8125,-41.125,16.375,-1.8125,-41.125,0.042076145527048386,-0.5202904729785123,0.024241411423611053,0.8526076328989636,-0.3064808455331724,62.77880573471487,174.16249704036545,0.572509765625,0.3856201171875,0.35040283203125,-0.633056640625,-0.26415743191636226,62.805072606489496,-95.9131636602839,0.5437033007899935,,,,3,0,3,3
1788940177.7738655,1144343104.0,-8.65625,-0.2734375,4.6015625,-0.009765625,0.001953125,-0.060546875,12.25,-2.875,-34.3125,12.25,-2.875,-34.3125,0.042279267471066945,-0.5202231045459226,0.024107554140379836,0.8526424871375345,-0.3605004493238126,62.768776312974225,174.10257867571676,0.572509765625,0.3856201171875,0.35040283203125,-0.633056640625,-0.26415743191636226,62.805072606489496,-95.9131636602839,0.5325661643575904,,,,3,0,3,3
1788940177.7763348,1144347010.0,-8.734375,-0.234375,4.6015625,-0.01171875,-0.00390625,-0.037109375,12.25,-2.875,-34.3125,12.25,-2.875,-34.3125,0.042476181154230984,-0.5201454568530626,0.02400450816086728,0.8526829782150144,-0.4069340036046694,62.75756568216093,174.04817855470685,0.5723876953125,0.385498046875,0.35052490234375,-0.6331787109375,-0.3235695803477312,62.80428986822311,-95.97334781202822,0.44924366403449967,,,,3,0,3,3
1788940177.7782638,1144350893.0,-8.81640625,0.03125,4.6796875,-0.01171875,0.001953125,-0.025390625,12.5,-2.4375,-34.5625,12.5,-2.4375,-34.5625,0.042479374443681335,-0.5200362576450713,0.024032977375055622,0.852748620333022,-0.3995210621678996,62.743127500810004,174.05277903455118,0.5723876953125,0.385498046875,0.35052490234375,-0.6331787109375,-0.3235695803477312,62.80428986822311,-95.97334781202822,0.4512805751642287,,,,3,0,3,3
1788940177.786994,1144355475.0,-8.77734375,-0.08203125,4.6015625,-0.01171875,0.01953125,-0.021484375,12.5,-2.4375,-34.5625,12.5,-2.4375,-34.5625,0.042579362322025,-0.5199449252981037,0.02392729578203755,0.852802296594913,-0.4335954548104849,62.73010149144798,174.01902687551453,0.57232666015625,0.38543701171875,0.35064697265625,-0.63323974609375,-0.36303155456653385,62.81265260707792,-96.01473160902546,0.0,,,,3,0,3,3
1788940177.7855759,1144358829.0,-8.65625,-0.3515625,4.5234375,-0.01171875,0.01953125,-0.021484375,12.5,-2.4375,-34.5625,12.5,-2.4375,-34.5625,0.04269128612096218,-0.5199565765021124,0.023757325072665703,0.8527943492700528,-0.4845805006090133,62.730408034665146,173.97289095272185,0.57232666015625,0.38543701171875,0.35064697265625,-0.63323974609375,-0.36303155456653385,62.81265260707792,-96.01473160902546,0.0,,,,3,0,3,3
1788940177.7915003,1144362735.0,-8.65625,-0.390625,4.48828125,-0.017578125,0.021484375,-0.029296875,13.1875,-2.9375,-34.5,13.1875,-2.9375,-34.5,0.04288448006238126,-0.5199938397740989,0.023593989020019128,0.85276646958525,-0.5451765399200978,62.73412625478186,173.90984617362864,0.57232666015625,0.38543701171875,0.35064697265625,-0.63323974609375,-0.36303155456653385,62.81265260707792,-96.01473160902546,0.0,,,,3,0,0,3
1788940177.7855759,1144367318.0,-8.77734375,-0.2734375,4.44921875,-0.015625,0.013671875,-0.01171875,13.1875,-2.9375,-34.5,13.1875,-2.9375,-34.5,0.0430730248081845,-0.5201091079962765,0.02351643799827602,0.8526888104443874,-0.5882373014356158,62.74889132326629,173.8576938179058,0.572265625,0.38543701171875,0.35076904296875,-0.6331787109375,-0.3830888600689665,62.818905661850586,-96.01997942910103,0.6195516112602886,,,,3,0,0,3
1788940177.7915003,1144371100.0,-8.81640625,-0.234375,4.48828125,-0.009765625,0.01171875,0.009765625,13.25,-0.875,-33.5625,13.25,-0.875,-33.5625,0.043059564004211064,-0.5201456710784125,0.0233236952140323,0.852672481113187,-0.6281817651833493,62.75241201484465,173.83500298768433,0.572265625,0.38543701171875,0.35076904296875,-0.6331787109375,-0.3830888600689665,62.818905661850586,-96.01997942910103,0.6196282421561919,,,,3,0,3,3
1788940177.8068314,1144374607.0,-8.77734375,-0.19921875,4.5234375,-0.01171875,0.013671875,0.021484375,13.25,-0.875,-33.5625,13.25,-0.875,-33.5625,0.04302217957388536,-0.5201674285995187,0.02315170755519222,0.8526657825468054,-0.6603327125473188,62.754113138976415,173.82034850742573,0.572265625,0.385498046875,0.35076904296875,-0.63311767578125,-0.36903277326830775,62.8226981347076,-96.00217563473268,0.8847354197578567,,,,3,0,3,3
1788940177.8061774,1144379236.0,-8.77734375,-0.16015625,4.48828125,-0.01171875,0.013671875,0.021484375,13.25,-0.875,-33.5625,13.25,-0.875,-33.5625,0.04296218938846574,-0.5202091595165286,0.022924928134340092,0.8526494756393695,-0.7015627741414504,62.758110185763066,173.80310171537582,0.572265625,0.385498046875,0.35076904296875,-0.63311767578125,-0.36903277326830775,62.8226981347076,-96.00217563473268,0.8872846027021808,,,,3,0,3,3
1788940177.8011644,1144382043.0,-8.69921875,-0.234375,4.37109375,-0.00390625,0.015625,0.01953125,13.5,-3.0,-34.8125,13.5,-3.0,-34.8125,0.04302572981506432,-0.5202948223659479,0.02296301685271345,0.8525929768946551,-0.7032340456079734,62.769813245725636,173.7930837902355,0.572265625,0.385498046875,0.35076904296875,-0.63311767578125,-0.36903277326830775,62.8226981347076,-96.00217563473268,0.8846625505463501,,,,3,0,3,3
1788940177.8081305,1144386049.0,-8.6953125,-0.3515625,4.33203125,-0.01171875,0.013671875,0.021484375,13.5,-3.0,-34.8125,13.5,-3.0,-34.8125,0.043112693354697224,-0.5204100102367212,0.02292111696207715,0.8525194070015828,-0.7255502870784574,62.784871455876434,173.76718156425684,0.57244873046875,0.385498046875,0.350830078125,-0.6329345703125,-0.34496509882172954,62.829869468977805,-95.95533124752035,0.7060904985011737,,,,3,0,3,3
1788940177.8253236,1144390708.0,-8.7734375,-0.234375,4.37109375,-0.005859375,-0.001953125,0.033203125,16.0,0.4375,-38.9375,16.0,0.4375,-38.9375,0.04303502197423315,-0.5204399413286508,0.02272084039095917,0.8525104209131033,-0.758647629220847,62.7874876945992,173.75731336591872,0.57244873046875,0.385498046875,0.350830078125,-0.6329345703125,-0.34496509882172954,62.829869468977805,-95.95533124752035,0.7100105360574904,,,,3,0,3,3
1788940177.8253236,1144394614.0,-8.8125,-0.0078125,4.48828125,0.013671875,-0.00390625,0.048828125,16.0,0.4375,-38.9375,16.0,0.4375,-38.9375,0.04292690018486586,-0.5204427642234045,0.022602356097456585,0.8525172983035969,-0.7698406633501254,62.787097546431795,173.7650291390338,0.5726318359375,0.385498046875,0.350830078125,-0.63275146484375,-0.3111308077244526,62.82827651896202,-95.89719436115668,0.8899114905294544,,,,3,0,3,3
1788940177.8228974,1144398768.0,-8.77734375,-0.12109375,4.41015625,0.013671875,-0.00390625,0.048828125,16.0,0.4375,-38.9375,16.0,0.4375,-38.9375,0.04283364702992729,-0.5204585166219404,0.022474843966785223,0.8525157432836497,-0.7851321064778531,62.788363101966205,173.7681779598868,0.5726318359375,0.385498046875,0.350830078125,-0.63275146484375,-0.3111308077244526,62.82827651896202,-95.89719436115668,0.8931544043730504,,,,3,0,3,3
1788940177.8293211,1144402150.0,-8.69921875,-0.08203125,4.44921875,0.01953125,0.0,0.041015625,15.8125,-3.625,-40.75,15.8125,-3.625,-40.75,0.042831946837428386,-0.5204750613281212,0.022700071955296795,0.8524997604684874,-0.7371543805247825,62.79222118586011,173.79754404086015,0.5726318359375,0.385498046875,0.350830078125,-0.63275146484375,-0.3111308077244526,62.82827651896202,-95.89719436115668,0.8901680550877301,,,,3,0,3,3
1788940177.8378859,1144406057.0,-8.65625,-0.12109375,4.296875,0.00390625,-0.001953125,0.0390625,15.8125,-3.625,-40.75,15.8125,-3.625,-40.75,0.0428219468181025,-0.5205612511720548,0.022867971624822347,0.852443147970971,-0.7015274943306988,62.80499827335285,173.8201401321239,0.57275390625,0.3856201171875,0.35076904296875,-0.63262939453125,-0.2613978234162594,62.83782242218965,-95.84824480599522,0.5521922659949466,,,,3,0,3,3
1788940177.837554,1144410239.0,-8.65625,-0.08203125,4.296875,0.01171875,-0.021484375,0.05078125,15.8125,-3.625,-40.75,15.8125,-3.625,-40.75,0.04278300138017508,-0.5206109586010366,0.023088363601655688,0.8524088057051098,-0.650249401586592,62.813281814385306,173.85637067819872,0.57275390625,0.3856201171875,0.35076904296875,-0.63262939453125,-0.2613978234162594,62.83782242218965,-95.84824480599522,0.5496105343650349,,,,3,0,3,3
1788940177.841489,1144414193.0,-8.77734375,0.03125,4.41015625,0.01171875,-0.021484375,0.05078125,16.8125,-2.6875,-40.5,16.8125,-2.6875,-40.5,0.04265711331515016,-0.5206627414553855,0.02328046270664998,0.852378261337034,-0.5936416468773503,62.82169123657005,173.90755012168282,0.57275390625,0.3856201171875,0.35076904296875,-0.63262939453125,-0.2613978234162594,62.83782242218965,-95.84824480599522,0.5509145181193733,,,,3,0,3,3
1788940177.839536,1144419375.0,-8.81640625,-0.04296875,4.44921875,0.01953125,-0.017578125,0.041015625,16.8125,-2.6875,-40.5,16.8125,-2.6875,-40.5,0.042591511857854654,-0.5207781821061856,0.02344309193312112,0.8523065584638274,-0.552261652546154,62.838368647119644,173.94102615518335,0.57293701171875,0.38568115234375,0.3505859375,-0.632568359375,-0.20037783058186337,62.83139519214375,-95.79359497978072,0.0,,,,3,0,3,3
1788940177.841489,1144422182.0,-8.8515625,0.1875,4.44921875,0.01953125,-0.03125,0.0546875,16.8125,-2.6875,-40.5,16.8125,-2.6875,-40.5,0.04247823529510371,-0.5207698459317536,0.02361809408100809,0.8523124736423914,-0.49988936310607396,62.83855784212408,173.98824929569784,0.57293701171875,0.38568115234375,0.3505859375,-0.632568359375,-0.20037783058186337,62.83139519214375,-95.79359497978072,0.0,,,,3,0,3,3
1788940177.8567665,1144425788.0,-8.81640625,0.22265625,4.41015625,0.01953125,-0.021484375,0.048828125,16.8125,-2.6875,-40.5,16.8125,-2.6875,-40.5,0.04234084645434542,-0.5207781744257093,0.02383503843658006,0.8523081817664793,-0.4356663211817362,62.84127004095661,174.04586454147656,0.5731201171875,0.38568115234375,0.350341796875,-0.6324462890625,-0.1330757448658541,62.80059129108119,-95.70883071131786,1.0712725323438077,,,,3,0,3,3
1788940177.8561788,1144429341.0,-8.8515625,0.33984375,4.44921875,0.01953125,-0.021484375,0.048828125,16.8125,-2.6875,-40.5,16.8125,-2.6875,-40.5,0.04219806578174893,-0.520766564924948,0.024056787057427705,0.8523161262683131,-0.36938016757054126,62.84131938112599,174.10556095425136,0.5731201171875,0.38568115234375,0.350341796875,-0.6324462890625,-0.1330757448658541,62.80059129108119,-95.70883071131786,1.0733542992536325,,,,3,0,3,3
1788940177.858132,1144433724.0,-8.8515625,0.22265625,4.5234375,0.009765625,-0.021484375,0.02734375,11.8125,-3.9375,-35.1875,11.8125,-3.9375,-35.1875,0.042144265604129795,-0.5207295302913212,0.02432253561612953,0.8523338732095955,-0.30495050159871756,62.83820197151842,174.15226580397703,0.5731201171875,0.38568115234375,0.350341796875,-0.6324462890625,-0.1330757448658541,62.80059129108119,-95.70883071131786,1.0749112531532834,,,,3,0,3,3
1788940177.8676217,1144437430.0,-8.69921875,0.109375,4.5234375,0.0,-0.037109375,0.025390625,11.8125,-3.9375,-35.1875,11.8125,-3.9375,-35.1875,0.042113437624526545,-0.5206548029504933,0.024527969049225475,0.8523751599327308,-0.2558482526209681,62.829594566786,174.18669504806246,0.57330322265625,0.38568115234375,0.35028076171875,-0.63238525390625,-0.10031072221016477,62.80199968436932,-95.67630729252798,0.0,,,,3,0,3,3
1788940177.8719385,1144440736.0,-8.66015625,0.37890625,4.5234375,-0.001953125,-0.02734375,0.021484375,13.9375,-2.8125,-33.6875,13.9375,-2.8125,-33.6875,0.04202553382636775,-0.52059286527593,0.02469353994126815,0.8524125481335755,-0.20801154115223106,62.82243645241841,174.22796567452593,0.57330322265625,0.38568115234375,0.35028076171875,-0.63238525390625,-0.10031072221016477,62.80199968436932,-95.67630729252798,0.0,,,,3,0,3,3
1788940177.8746905,1144445119.0,-8.734375,0.26171875,4.41015625,-0.005859375,-0.0234375,0.015625,13.9375,-2.8125,-33.6875,13.9375,-2.8125,-33.6875,0.04192547011644185,-0.520574473623701,0.024902430274839692,0.8524226307022407,-0.15000756176890964,62.821397393744085,174.27687469969675,0.57354736328125,0.38555908203125,0.3502197265625,-0.63226318359375,-0.07381978006721555,62.78351567910362,-95.62342979079493,0.3552793486718524,,,,3,0,3,3
1788940177.8746905,1144448696.0,-8.734375,0.1875,4.5625,-0.005859375,-0.0234375,0.015625,13.9375,-2.8125,-33.6875,13.9375,-2.8125,-33.6875,0.04185461522827479,-0.5205040342077202,0.025072631096617035,0.8524641369157264,-0.10332611477268695,62.81309939297791,174.3151668391739,0.57354736328125,0.38555908203125,0.3502197265625,-0.63226318359375,-0.07381978006721555,62.78351567910362,-95.62342979079493,0.36407902802866937,,,,3,0,3,3
1788940177.8746905,1144453455.0,-8.73828125,0.03125,4.5625,-0.015625,-0.021484375,0.005859375,12.9375,-2.375,-34.125,12.9375,-2.375,-34.125,0.041779003301833095,-0.5203197096664868,0.02512403012693734,0.8525788513245383,-0.0797457888437904,62.788733645271854,174.34048079839792,0.57354736328125,0.38555908203125,0.3502197265625,-0.63226318359375,-0.07381978006721555,62.78351567910362,-95.62342979079493,0.36884112127149515,,,,3,0,3,3
1788940177.8746905,1144456761.0,-8.734375,0.109375,4.5234375,-0.01171875,-0.015625,0.00390625,12.9375,-2.375,-34.125,12.9375,-2.375,-34.125,0.04168383186231654,-0.5202586309773346,0.0252420212270131,0.8526172971616508,-0.04123537937666702,62.78133056598276,174.37699916350033,0.57379150390625,0.3853759765625,0.35028076171875,-0.63214111328125,-0.07548222278630465,62.77292180560177,-95.59255658443541,0.0,,,,3,0,3,3
1788940177.8923242,1144460544.0,-8.73828125,0.1484375,4.48828125,-0.015625,-0.015625,0.0,12.5,-3.9375,-35.0625,12.5,-3.9375,-35.0625,0.04166951815358345,-0.520238393412562,0.025404478839546808,0.8526255202204867,-0.004403202630702584,62.779684917851476,174.40144652886272,0.57379150390625,0.3853759765625,0.35028076171875,-0.63214111328125,-0.07548222278630465,62.77292180560177,-95.59255658443541,0.0,,,,3,0,3,3
1788940177.8967645,1144464727.0,-8.77734375,0.0703125,4.5234375,-0.025390625,-0.0234375,0.001953125,12.5,-3.9375,-35.0625,12.5,-3.9375,-35.0625,0.041660483196005085,-0.5201996408151103,0.025567243617431033,0.8526447407270582,0.03206403296061036,62.7755537121591,174.42503307304108,0.573974609375,0.38519287109375,0.350341796875,-0.63201904296875,-0.08304707877260327,62.75699709742564,-95.56266001468107,0.5978554944424047,,,,3,0,3,3
1788940177.8968186,1144468880.0,-8.734375,0.0703125,4.6015625,-0.025390625,-0.0234375,0.001953125,12.5,-3.9375,-35.0625,12.5,-3.9375,-35.0625,0.04165272812672472,-0.5201253320291062,0.025722060550924516,0.8526857948988172,0.06715903845067095,62.766598852164286,174.44774632759092,0.573974609375,0.38519287109375,0.350341796875,-0.63201904296875,-0.08304707877260327,62.75699709742564,-95.56266001468107,0.6049319698525393,,,,3,0,3,3
1788940177.9027858,1144472863.0,-8.77734375,-0.08203125,4.5625,-0.0234375,-0.01953125,-0.009765625,13.0,-2.125,-35.4375,13.0,-2.125,-35.4375,0.04167338036151227,-0.520061490846348,0.025482211692584203,0.8527309259052195,0.014205785680280232,62.756476609993406,174.41296985785684,0.573974609375,0.38519287109375,0.350341796875,-0.63201904296875,-0.08304707877260327,62.75699709742564,-95.56266001468107,0.5940616863032234,,,,3,0,3,3
1788940177.907869,1144476369.0,-8.6953125,-0.0078125,4.6015625,-0.021484375,-0.009765625,-0.00390625,13.0,-2.125,-35.4375,13.0,-2.125,-35.4375,0.04164885379503916,-0.5199602833557586,0.025343729066870473,0.8527979667583313,-0.010675877162257565,62.7420022335204,174.40152385854594,0.57415771484375,0.385009765625,0.3504638671875,-0.63189697265625,-0.10028753289755046,62.74986678680406,-95.54401538560593,0.5890784302406138,,,,3,0,3,3
1788940177.9110591,1144480075.0,-8.734375,-0.0078125,4.44921875,-0.037109375,-0.0078125,-0.001953125,13.0,-2.125,-35.4375,13.0,-2.125,-35.4375,0.04159004105869583,-0.5200123618440872,0.02512344234946461,0.8527756004123144,-0.05071947045808543,62.74753954709605,174.38484333058486,0.57415771484375,0.385009765625,0.3504638671875,-0.63189697265625,-0.10028753289755046,62.74986678680406,-95.54401538560593,0.5806568889784534,,,,3,0,3,3
1788940177.9170845,1144484835.0,-8.6953125,-0.12109375,4.48828125,-0.03125,-0.017578125,-0.00390625,13.4375,-2.5,-34.8125,13.4375,-2.5,-34.8125,0.04171486916971677,-0.5199754431241591,0.024873234833234826,0.8527993494526827,-0.11979923347093027,62.74092480189561,174.32615162715334,0.5743408203125,0.38482666015625,0.3505859375,-0.63177490234375,-0.1175289853999717,62.742760568929036,-95.52539469515074,0.5671975969547189,,,,3,0,3,3
1788940177.9210546,1144489441.0,-8.7734375,-0.08203125,4.5234375,-0.025390625,-0.013671875,-0.005859375,13.4375,-2.5,-34.8125,13.4375,-2.5,-34.8125,0.041878063779704176,-0.519956082976986,0.02467347278243946,0.8528089582609618,-0.18336521387581975,62.73696687358326,174.2655915614385,0.5743408203125,0.38482666015625,0.3505859375,-0.63177490234375,-0.1175289853999717,62.742760568929036,-95.52539469515074,0.5584495755222385,,,,3,0,3,3
1788940177.9240136,1144491794.0,-8.7734375,-0.234375,4.5625,-0.025390625,-0.013671875,-0.005859375,17.375,-2.9375,-39.0625,17.375,-2.9375,-39.0625,0.04195748658689226,-0.5199294526813407,0.02457117187108463,0.8528242439487012,-0.21511601048259793,62.73269054448755,174.2357002509929,0.5743408203125,0.38482666015625,0.3505859375,-0.63177490234375,-0.1175289853999717,62.742760568929036,-95.52539469515074,0.5546125883404178,,,,3,0,3,3
1788940177.9271524,1144496277.0,-8.69921875,-0.19921875,4.48828125,-0.01953125,-0.015625,0.00390625,17.375,-2.9375,-39.0625,17.375,-2.9375,-39.0625,0.042115387628016074,-0.5199116049070083,0.024414792618697223,0.8528318328424115,-0.2687419806143772,62.72919363933047,174.1819061394915,0.574462890625,0.3846435546875,0.35064697265625,-0.6317138671875,-0.13632824989296255,62.7274269231605,-95.51485802479449,0.8758089151075976,,,,3,0,3,3
