pc_unix,dev_us,ax,ay,az,gx,gy,gz,mx_raw,my_raw,mz_raw,mx,my,mz,host_qw,host_qx,host_qy,host_qz,host_roll,host_pitch,host_yaw,chip_qw,chip_qx,chip_qy,chip_qz,chip_roll,chip_pitch,chip_yaw,diff_deg,rel_roll,rel_pitch,rel_yaw,cal_acc,cal_gyr,cal_mag,cal_rv
1788939926.7693336,893335868.0,-9.16015625,0.796875,3.0703125,0.005859375,-0.052734375,-0.037109375,22.1875,-5.25,-37.5,22.1875,-5.25,-37.5,-0.004888473490763954,-0.5836412215671385,0.05161140221180068,0.8103550397673109,15.913438026712635,70.98065672900398,-167.92591923505086,0.5791015625,0.44720458984375,0.37890625,-0.566650390625,15.800671244035158,71.02626388937367,-77.4468259426912,0.7334082549433739,,,,3,0,3,3
1788939926.7758882,893342627.0,-9.23828125,0.875,3.03125,0.005859375,-0.046875,-0.025390625,21.5625,-3.3125,-37.0,21.5625,-3.3125,-37.0,-0.004832937032355484,-0.5835675763208802,0.051246020492180765,0.8104315961081043,15.79167156470501,70.97701038190408,-168.02223572434804,0.57904052734375,0.44696044921875,0.37884521484375,-0.56689453125,15.698577624768356,70.99538247551432,-77.54336309542421,1.1263979875535564,,,,3,0,3,3
1788939926.7758882,893346933.0,-9.23828125,0.875,3.109375,0.001953125,-0.0546875,-0.01953125,21.5625,-3.3125,-37.0,21.5625,-3.3125,-37.0,-0.004814518579567283,-0.5834538257731895,0.05102219275120642,0.8105277228129427,15.713300210005347,70.9650326792743,-168.08378830942775,0.57904052734375,0.44696044921875,0.37884521484375,-0.56689453125,15.698577624768356,70.99538247551432,-77.54336309542421,1.1175941034492114,,,,3,0,3,3
1788939926.7758882,893351369.0,-9.1953125,0.8359375,3.14453125,-0.005859375,-0.052734375,-0.009765625,20.25,-3.4375,-32.8125,20.25,-3.4375,-32.8125,-0.004792893458875277,-0.5832867035106609,0.050833142929531644,0.8106600034908987,15.63889862221263,70.94526491753012,-168.14453638012344,0.5791015625,0.44677734375,0.37872314453125,-0.56707763671875,15.647517529388868,70.97091922289924,-77.60295093939125,0.9688905988029713,,,,3,0,3,3
1788939926.7888484,893354799.0,-9.19921875,0.8359375,3.22265625,-0.005859375,-0.056640625,-0.005859375,20.25,-3.4375,-32.8125,20.25,-3.4375,-32.8125,-0.0047834692274313995,-0.5831308283582293,0.05072632481803997,0.8107788819467674,15.591375058351138,70.92560109949923,-168.18416236860114,0.5791015625,0.44677734375,0.37872314453125,-0.56707763671875,15.647517529388868,70.97091922289924,-77.60295093939125,0.9657052329965357,,,,3,0,3,3
1788939926.7916086,893362935.0,-9.1171875,0.796875,3.18359375,-0.0078125,-0.0390625,-0.005859375,19.0,-4.0,-30.6875,19.0,-4.0,-30.6875,-0.004700667315968709,-0.5827660806570376,0.05077901724551175,0.8110382792260794,15.55388424817488,70.87635737211804,-168.2330658802976,0.57916259765625,0.4466552734375,0.37860107421875,-0.56719970703125,15.621530427493735,70.94904154837037,-77.63426365338393,0.9190747442195188,,,,3,0,3,3
1788939926.793822,893366664.0,-9.31640625,0.875,3.0703125,-0.013671875,-0.0390625,0.013671875,19.0,-4.0,-30.6875,19.0,-4.0,-30.6875,-0.00473023851393161,-0.5827496137689095,0.050934098099838156,0.8110402148762688,15.601748809735938,70.87129930277331,-168.19554835325056,0.57916259765625,0.4466552734375,0.37860107421875,-0.56719970703125,15.621530427493735,70.94904154837037,-77.63426365338393,0.9264780844895177,,,,3,0,3,3
1788939926.8049006,893370124.0,-9.38671875,0.875,2.9921875,-0.0234375,-0.0390625,0.021484375,18.5,-6.0625,-31.9375,18.5,-6.0625,-31.9375,-0.004764519625467413,-0.5827198184009091,0.05108362323750379,0.8110520180805166,15.64763053299379,70.86439552874181,-168.15918018958604,0.57928466796875,0.446533203125,0.37847900390625,-0.5672607421875,15.612621669318205,70.92571579665385,-77.64174421903928,0.8652431966657743,,,,3,0,3,3
1788939926.808899,893374330.0,-9.421875,0.875,3.03125,-0.013671875,-0.048828125,0.01953125,18.5,-6.0625,-31.9375,18.5,-6.0625,-31.9375,-0.004788190677985658,-0.582661547484799,0.05128284368206787,0.8110811699555915,15.702561614308513,70.85305927328191,-168.11874602343596,0.57928466796875,0.446533203125,0.37847900390625,-0.5672607421875,15.612621669318205,70.92571579665385,-77.64174421903928,0.8773158180356491,,,,3,0,3,3
1788939926.8069458,893378760.0,-9.38671875,0.875,3.109375,-0.013671875,-0.048828125,0.01953125,18.5,-6.0625,-31.9375,18.5,-6.0625,-31.9375,-0.004811989540421288,-0.5825773384642295,0.05150139805204973,0.8111276690282988,15.760316911797668,70.83787321033823,-168.07708912399187,0.57928466796875,0.446533203125,0.37847900390625,-0.5672607421875,15.612621669318205,70.92571579665385,-77.64174421903928,0.8915484194870963,,,,3,0,3,3
1788939926.808899,893382743.0,-9.34375,0.8359375,3.0703125,-0.005859375,-0.052734375,0.01953125,17.875,-4.5625,-31.5625,17.875,-4.5625,-31.5625,-0.004798826334162217,-0.5825235250503916,0.05169174015590379,0.8111542874375594,15.805883510792913,70.82796831037162,-168.04831120740496,0.5794677734375,0.4464111328125,0.37835693359375,-0.5672607421875,15.620715104459157,70.90094707263329,-77.6254720280714,0.8244903636784442,,,,3,0,3,3
1788939926.808899,893385872.0,-9.34765625,0.8359375,3.03125,-0.0078125,-0.044921875,0.015625,17.875,-4.5625,-31.5625,17.875,-4.5625,-31.5625,-0.004788290491750235,-0.5825092017871809,0.051819716407346054,0.8111564701701456,15.838357671108357,70.8243344745763,-168.02724657774806,0.5794677734375,0.4464111328125,0.37835693359375,-0.5672607421875,15.620715104459157,70.90094707263329,-77.6254720280714,0.834299732697343,,,,3,0,3,3
1788939926.8217163,893390432.0,-9.31640625,0.8359375,3.0703125,-0.01171875,-0.056640625,0.01953125,17.875,-4.5625,-31.5625,17.875,-4.5625,-31.5625,-0.004776834206818759,-0.5824361442750213,0.05202856092486167,0.8111956290224294,15.887471086418827,70.81148016924554,-167.99632067775025,0.57965087890625,0.4462890625,0.378173828125,-0.56732177734375,15.628315064994334,70.87334667649834,-77.62183075384736,0.5220469403284301,,,,3,0,3,3
1788939926.8217163,893393561.0,-9.2734375,0.796875,3.03125,-0.0078125,-0.064453125,0.033203125,17.875,-4.5625,-31.5625,17.875,-4.5625,-31.5625,-0.004764181350321738,-0.5823925811591453,0.05216778493421197,0.8112180386319743,15.919722358762952,70.80370970205642,-167.97660221088742,0.57965087890625,0.4462890625,0.378173828125,-0.56732177734375,15.628315064994334,70.87334667649834,-77.62183075384736,0.5403566094193927,,,,3,0,3,3
1788939926.8217163,893397914.0,-9.234375,0.796875,3.03125,-0.0078125,-0.064453125,0.033203125,17.875,-4.5625,-31.5625,17.875,-4.5625,-31.5625,-0.004743539022829432,-0.5823247216043381,0.05236751408899846,0.8112540051760038,15.96493137378894,70.79187254719903,-167.94958202141865,0.57965087890625,0.4462890625,0.378173828125,-0.56732177734375,15.628315064994334,70.87334667649834,-77.62183075384736,0.5667320010433402,,,,3,0,3,3
1788939926.8217163,893401674.0,-9.27734375,0.796875,3.0703125,-0.013671875,-0.0625,0.033203125,17.4375,-4.6875,-32.625,17.4375,-4.6875,-32.625,-0.004719545672024351,-0.5822522033522332,0.0525385299980241,0.8112951376939013,16.000926862176435,70.77988345977495,-167.92969147897475,0.579833984375,0.44610595703125,0.3779296875,-0.5673828125,15.62617765895022,70.82131662801302,-77.60626539050443,1.101612956627038,,,,3,0,3,3
1788939926.8376207,893405980.0,-9.31640625,0.76171875,3.03125,-0.00390625,-0.06640625,0.041015625,17.4375,-4.6875,-32.625,17.4375,-4.6875,-32.625,-0.004679129849681228,-0.58220221973906,0.05270869835033294,0.8113202044772304,16.035730152822723,70.77131163915709,-167.91225462849013,0.579833984375,0.44610595703125,0.3779296875,-0.5673828125,15.62617765895022,70.82131662801302,-77.60626539050443,1.1139676629570754,,,,3,0,3,3
1788939926.8356676,893413393.0,-9.23828125,0.64453125,3.03125,-0.00390625,-0.080078125,0.05859375,17.75,-4.4375,-36.6875,17.75,-4.4375,-36.6875,-0.004592935023379627,-0.5820496962473525,0.05260005628183563,0.8114371757107162,15.97318414700445,70.7537064476039,-167.97305755008148,0.580078125,0.44598388671875,0.377685546875,-0.5673828125,15.657887027231409,70.77998522418065,-77.56546382385748,1.1678824715716445,,,,3,0,3,3
1788939926.8376207,893413669.0,-9.27734375,0.64453125,2.9921875,-0.00390625,-0.080078125,0.05859375,17.75,-4.4375,-36.6875,17.75,-4.4375,-36.6875,-0.00459099093188051,-0.5820457969221636,0.052597428986845725,0.8114401540172143,15.971679177376792,70.75324888368368,-167.97450901012388,0.580078125,0.44598388671875,0.377685546875,-0.5673828125,15.657887027231409,70.77998522418065,-77.56546382385748,1.1678128020431058,,,,3,0,3,3
1788939926.8496926,893417246.0,-9.234375,0.5703125,2.9921875,-0.00390625,-0.080078125,0.05859375,17.75,-4.4375,-36.6875,17.75,-4.4375,-36.6875,-0.0045585679318316105,-0.58197979513767,0.05254357619812785,0.8114911645299892,15.943683003665646,70.74563080045911,-168.00078742183481,0.580078125,0.44598388671875,0.377685546875,-0.5673828125,15.657887027231409,70.77998522418065,-77.56546382385748,1.1661302576006038,,,,3,0,3,3
1788939926.8544476,893421882.0,-9.2734375,0.5703125,2.953125,0.009765625,-0.083984375,0.068359375,21.5625,-4.6875,-37.1875,21.5625,-4.6875,-37.1875,-0.004536623359313058,-0.5819052028520757,0.05252201983993539,0.8115461732853616,15.925928293285573,70.73615670657915,-168.01862941121587,0.58038330078125,0.44586181640625,0.3773193359375,-0.56744384765625,15.705365058124078,70.7315440684336,-77.52644331162355,0.9198861736626165,,,,3,0,3,3
1788939926.8544476,893425111.0,-9.3125,0.68359375,2.953125,0.03125,-0.09375,0.087890625,21.5625,-4.6875,-37.1875,21.5625,-4.6875,-37.1875,-0.00454288682784983,-0.5818562153564715,0.05258455806222894,0.8115772120283523,15.9397556314975,70.72840969825927,-168.00947521228215,0.58038330078125,0.44586181640625,0.3773193359375,-0.56744384765625,15.705365058124078,70.7315440684336,-77.52644331162355,0.9242759007355511,,,,3,0,3,3
1788939926.8524945,893433400.0,-9.234375,0.68359375,3.0703125,0.033203125,-0.10546875,0.111328125,21.75,-5.375,-38.1875,21.75,-5.375,-38.1875,-0.00443263154679968,-0.5815639126981451,0.0530024247112256,0.8117601309497317,16.005996765310616,70.68439799378892,-167.98692621219357,0.58074951171875,0.44586181640625,0.37677001953125,-0.56744384765625,15.824828221872822,70.66884613441248,-77.42029239056096,0.8628385703517889,,,,3,0,3,3
1788939926.8544476,893436977.0,-9.234375,0.72265625,3.03125,0.033203125,-0.10546875,0.111328125,21.75,-5.375,-38.1875,21.75,-5.375,-38.1875,-0.0044256209050069426,-0.5814693487347526,0.0532039228809306,0.8118147282180015,16.051438916311227,70.66862854025156,-167.9587265461415,0.58074951171875,0.44586181640625,0.37677001953125,-0.56744384765625,15.824828221872822,70.66884613441248,-77.42029239056096,0.8792594614478372,,,,3,0,3,3
1788939926.875501,893441413.0,-9.234375,0.72265625,3.03125,0.03515625,-0.10546875,0.123046875,21.375,-3.9375,-38.125,21.375,-3.9375,-38.125,-0.004528365451232621,-0.5813212993884677,0.05322633527021475,0.8119187139223645,16.062722883668417,70.64603405454743,-167.940970199574,0.5811767578125,0.4459228515625,0.3760986328125,-0.5673828125,15.991415276917829,70.59221055275425,-77.26313878554308,1.021134398580257,,,,3,0,3,3
1788939926.879501,893444843.0,-9.234375,0.796875,3.03125,0.04296875,-0.11328125,0.146484375,21.375,-3.9375,-38.125,21.375,-3.9375,-38.125,-0.004649576912611991,-0.5812040060640029,0.05328044918217361,0.8119984473535856,16.089445738928404,70.62681993279863,-167.90884311381382,0.5811767578125,0.4459228515625,0.3760986328125,-0.5673828125,15.991415276917829,70.59221055275425,-77.26313878554308,1.01889474447626,,,,3,0,3,3
1788939926.885247,893449102.0,-9.27734375,0.796875,3.0703125,0.046875,-0.1171875,0.15234375,21.375,-3.9375,-38.125,21.375,-3.9375,-38.125,-0.004801586789137446,-0.5810374378545551,0.05335305877750878,0.8121119945517393,16.122248531516732,70.59998766644907,-167.86966934240434,0.5816650390625,0.44598388671875,0.3753662109375,-0.56732177734375,16.172891612505605,70.51134107512904,-77.0968155327617,0.9843702231599446,,,,3,0,3,3
1788939926.8875039,893452779.0,-9.27734375,0.8359375,3.14453125,0.046875,-0.1171875,0.15234375,21.375,-3.9375,-38.125,21.375,-3.9375,-38.125,-0.004945457354207383,-0.5808530114328131,0.053405768741033824,0.8122395862220513,16.146073208818393,70.57116744850096,-167.83851787997813,0.5816650390625,0.44598388671875,0.3753662109375,-0.56732177734375,16.172891612505605,70.51134107512904,-77.0968155327617,0.9798126092374537,,,,3,0,3,3
1788939926.8882055,893456308.0,-9.3125,0.875,3.14453125,0.052734375,-0.1171875,0.15625,21.375,-3.9375,-38.125,21.375,-3.9375,-38.125,-0.005098474681528216,-0.5806873238684681,0.05346711529939079,0.8123530667363548,16.175853166785902,70.54460152957056,-167.80135538865537,0.5816650390625,0.44598388671875,0.3753662109375,-0.56732177734375,16.172891612505605,70.51134107512904,-77.0968155327617,0.9762805737227322,,,,3,0,3,3
1788939926.8882055,893460468.0,-9.27734375,0.875,3.18359375,0.0390625,-0.125,0.15625,18.75,-4.25,-32.375,18.75,-4.25,-32.375,-0.005209702392156203,-0.5803686992612752,0.05385290432284321,0.8125545499317295,16.27205139156527,70.49310936479701,-167.72805133544398,0.58221435546875,0.44610595703125,0.37451171875,-0.5672607421875,16.392767254282656,70.42589936765351,-76.90684283239034,0.6687842732633493,,,,3,0,3,3
1788939926.8882055,893464574.0,-9.234375,0.953125,3.22265625,0.048828125,-0.12109375,0.150390625,18.75,-4.25,-32.375,18.75,-4.25,-32.375,-0.005411606947408304,-0.5800501947248993,0.054249216616681625,0.8127542732009039,16.388012418582456,70.43965523318322,-167.62840630237943,0.58221435546875,0.44610595703125,0.37451171875,-0.5672607421875,16.392767254282656,70.42589936765351,-76.90684283239034,0.688406630519873,,,,3,0,3,3
1788939926.8862524,893468404.0,-9.2734375,0.953125,3.26171875,0.048828125,-0.12109375,0.150390625,18.75,-4.25,-32.375,18.75,-4.25,-32.375,-0.005589871396222949,-0.5797409951320392,0.05458689527149505,0.8129510457375065,16.4837248765972,70.3887944154271,-167.54611834671607,0.58221435546875,0.44610595703125,0.37451171875,-0.5672607421875,16.392767254282656,70.42589936765351,-76.90684283239034,0.7097786227039656,,,,3,0,3,3
1788939926.9064608,893472586.0,-9.19921875,1.06640625,3.18359375,0.05859375,-0.126953125,0.154296875,18.125,-3.25,-31.6875,18.125,-3.25,-31.6875,-0.005912360207274191,-0.5794649098803621,0.054761874359474265,0.8131338139142661,16.564909086231232,70.34201447264815,-167.45308090933227,0.582763671875,0.4461669921875,0.3736572265625,-0.56719970703125,16.593954850818008,70.32870142148553,-76.72085836160403,0.7985609936416613,,,,3,0,3,3
1788939926.9070468,893476216.0,-9.1953125,1.06640625,3.22265625,0.052734375,-0.123046875,0.14453125,18.125,-3.25,-31.6875,18.125,-3.25,-31.6875,-0.006159496923423894,-0.5792109526158349,0.054899791530988236,0.813303600051888,16.623586422679516,70.30031459785252,-167.38566946834572,0.582763671875,0.4461669921875,0.3736572265625,-0.56719970703125,16.593954850818008,70.32870142148553,-76.72085836160403,0.7972667908892507,,,,3,0,3,3
1788939926.9070468,893480475.0,-9.15625,1.1796875,3.30078125,0.05078125,-0.119140625,0.138671875,18.0625,-5.1875,-32.5625,18.0625,-5.1875,-32.5625,-0.006366264681993189,-0.578931607298617,0.05535431009405059,0.8134700763387983,16.758518147244036,70.25106177524256,-167.27142673166594,0.583251953125,0.44622802734375,0.372802734375,-0.567138671875,16.784570431928167,70.22393410178319,-76.5343455768614,1.310998082966914,,,,3,0,3,3
1788939926.9070468,893483705.0,-9.1953125,1.2578125,3.375,0.046875,-0.11328125,0.126953125,18.0625,-5.1875,-32.5625,18.0625,-5.1875,-32.5625,-0.006518029049143446,-0.578721605488237,0.055675932986661555,0.8135963428657337,16.85339608323837,70.21438230617454,-167.19075343484892,0.583251953125,0.44622802734375,0.372802734375,-0.567138671875,16.784570431928167,70.22393410178319,-76.5343455768614,1.321471059444019,,,,3,0,3,3
1788939926.9206445,893487758.0,-9.1953125,1.3359375,3.4140625,0.046875,-0.11328125,0.126953125,18.0625,-5.1875,-32.5625,18.0625,-5.1875,-32.5625,-0.006715650198106211,-0.5784558824902267,0.0560751482880821,0.8137562717419382,16.971940222141956,70.16793365738785,-167.08908861792526,0.583251953125,0.44622802734375,0.372802734375,-0.567138671875,16.784570431928167,70.22393410178319,-76.5343455768614,1.3366761474722637,,,,3,0,3,3
1788939926.925906,893491918.0,-9.1953125,1.375,3.4140625,0.04296875,-0.09765625,0.125,18.0625,-4.25,-32.5,18.0625,-4.25,-32.5,-0.006956181014183651,-0.5781942183716449,0.0564374766743321,0.8139151482887726,17.088367990360965,70.12168545005265,-166.98297360251354,0.583740234375,0.44635009765625,0.3720703125,-0.567138671875,16.969710293822935,70.16431711395816,-76.3991465046618,0.10164212069157864,,,,3,0,3,3
1788939926.9298165,893495447.0,-9.23828125,1.41015625,3.375,0.029296875,-0.091796875,0.103515625,18.0625,-4.25,-32.5,18.0625,-4.25,-32.5,-0.007152414550150645,-0.5779949164964177,0.056714576826778634,0.8140357340103452,17.179443210831682,70.08613648256039,-166.89877691549114,0.583740234375,0.44635009765625,0.3720703125,-0.567138671875,16.969710293822935,70.16431711395816,-76.3991465046618,0.18741729195267137,,,,3,0,3,3
1788939926.9368258,893499407.0,-9.234375,1.44921875,3.375,0.015625,-0.080078125,0.087890625,18.0625,-4.25,-32.5,18.0625,-4.25,-32.5,-0.007367260936689893,-0.577794949138266,0.05698701667428614,0.8141567417562566,17.272335022568775,70.05015081733907,-166.81085158432958,0.5841064453125,0.44635009765625,0.3714599609375,-0.56707763671875,17.09642112870579,70.08090424059962,-76.2632765519879,1.1262715440583373,,,,3,0,3,3
1788939926.9389117,893503913.0,-9.23828125,1.3359375,3.4140625,0.01171875,-0.06640625,0.0703125,18.0625,-4.25,-32.5,18.0625,-4.25,-32.5,-0.007572603836726792,-0.5775715712727293,0.057244417804617635,0.8142952857280293,17.356634378080674,70.01139725619426,-166.73108136418244,0.5841064453125,0.44635009765625,0.3714599609375,-0.56707763671875,17.09642112870579,70.08090424059962,-76.2632765519879,1.1366014547599055,,,,3,0,3,3
1788939926.9408724,893507289.0,-9.19921875,1.296875,3.375,0.01171875,-0.06640625,0.0703125,18.0625,-4.25,-32.5,18.0625,-4.25,-32.5,-0.007727572468884811,-0.5774048783955814,0.057437889357770076,0.8143984159456883,17.420040996139896,69.98240173015442,-166.67102730219509,0.5841064453125,0.44635009765625,0.3714599609375,-0.56707763671875,17.09642112870579,70.08090424059962,-76.2632765519879,1.145606815596652,,,,3,0,3,3
1788939926.9420638,893510949.0,-9.1953125,1.21875,3.4140625,-0.0078125,-0.064453125,0.0546875,17.8125,-4.875,-36.3125,17.8125,-4.875,-36.3125,-0.007863330471942346,-0.5772171327757835,0.05760064160053112,0.814518701903891,17.469234313229798,69.95144389441302,-166.62425191242858,0.58441162109375,0.44635009765625,0.37109375,-0.56707763671875,17.17992514653581,70.04707584803049,-76.2014330524512,0.4361738201291976,,,,3,0,3,3
1788939926.94704,893515755.0,-9.1953125,1.14453125,3.4140625,-0.015625,-0.052734375,0.048828125,17.8125,-4.875,-36.3125,17.8125,-4.875,-36.3125,-0.008021573497220743,-0.5769809887656943,0.057768014108555005,0.8146726026493982,17.518555091868187,69.91337119403792,-166.57592362369542,0.58441162109375,0.44635009765625,0.37109375,-0.56707763671875,17.17992514653581,70.04707584803049,-76.2014330524512,0.45896663606810834,,,,3,0,3,3
1788939926.9540062,893518938.0,-9.1953125,1.14453125,3.375,-0.00390625,-0.033203125,0.0390625,17.8125,-4.875,-36.3125,17.8125,-4.875,-36.3125,-0.0081087694233119,-0.5768561546476142,0.0578975092855231,0.8147509454564261,17.556251342116433,69.892496762841,-166.54184271960358,0.58465576171875,0.44622802734375,0.370849609375,-0.5670166015625,17.214813838557497,69.99723609120043,-76.14050849715996,1.0918293025807615,,,,3,0,3,3
1788939926.9540062,893523491.0,-9.1953125,1.14453125,3.3359375,-0.00390625,-0.033203125,0.0390625,17.8125,-4.875,-36.3125,17.8125,-4.875,-36.3125,-0.008240369741608071,-0.5766894515736595,0.05810419723519986,0.8148529161841703,17.618331353831422,69.86373762626732,-166.48612862559304,0.58465576171875,0.44622802734375,0.370849609375,-0.5670166015625,17.214813838557497,69.99723609120043,-76.14050849715996,1.1042587501131726,,,,3,0,3,3
1788939926.9540062,893526921.0,-9.234375,1.10546875,3.375,0.0078125,-0.03125,0.033203125,17.8125,-4.875,-36.3125,17.8125,-4.875,-36.3125,-0.008302190564914389,-0.576552578991997,0.05824470454088905,0.8149391091869658,17.652904973852728,69.84158195080435,-166.45817600017264,0.58465576171875,0.44622802734375,0.370849609375,-0.5670166015625,17.214813838557497,69.99723609120043,-76.14050849715996,1.114606337582895,,,,3,0,3,3
1788939926.9540062,893531180.0,-9.234375,1.10546875,3.3359375,0.009765625,-0.021484375,0.017578125,21.125,-4.8125,-37.9375,21.125,-4.8125,-37.9375,-0.008388218970127573,-0.576394374379293,0.05830894720723292,0.8150455383854308,17.669099621978066,69.8172784029153,-166.44034234426377,0.58477783203125,0.44622802734375,0.37066650390625,-0.5670166015625,17.25197160833641,69.97654131766869,-76.10848727841955,1.0686869091901285,,,,3,0,3,3
1788939926.9728947,893535286.0,-9.19921875,1.06640625,3.375,0.005859375,-0.013671875,0.009765625,21.125,-4.8125,-37.9375,21.125,-4.8125,-37.9375,-0.00842409057980195,-0.5762521925123028,0.058313181473469075,0.8151453969624741,17.661734487719446,69.7972043469617,-166.44523015734293,0.58477783203125,0.44622802734375,0.37066650390625,-0.5670166015625,17.25197160833641,69.97654131766869,-76.10848727841955,1.0711548988606987,,,,3,0,3,3
1788939926.9754615,893539146.0,-9.23828125,1.02734375,3.3359375,0.0234375,-0.009765625,-0.001953125,21.125,-4.8125,-37.9375,21.125,-4.8125,-37.9375,-0.008396984223701186,-0.5761360939336702,0.05827950768385521,0.8152301459753113,17.6355241853501,69.78262700710624,-166.4709927235868,0.58477783203125,0.44622802734375,0.37060546875,-0.56707763671875,17.251312619668965,69.97371142955181,-76.12132993038314,0.9074967369254574,,,,3,0,3,3
1788939926.9774146,893543022.0,-9.27734375,0.953125,3.30078125,0.0234375,-0.009765625,-0.001953125,21.125,-4.8125,-37.9375,21.125,-4.8125,-37.9375,-0.008303141366756995,-0.5760794626283403,0.058155974212957255,0.8152799477753812,17.579390870614564,69.77898550146028,-166.5247040132537,0.58477783203125,0.44622802734375,0.37060546875,-0.56707763671875,17.251312619668965,69.97371142955181,-76.12132993038314,0.9026884926429145,,,,3,0,3,3
1788939926.9774146,893546452.0,-9.23828125,0.9140625,3.30078125,0.041015625,0.001953125,-0.013671875,21.125,-4.8125,-37.9375,21.125,-4.8125,-37.9375,-0.008179780488415521,-0.5760466506913111,0.05806284649095433,0.8153110162851056,17.52855146967979,69.77868113495744,-166.57803534631995,0.58477783203125,0.44622802734375,0.37060546875,-0.56707763671875,17.251312619668965,69.97371142955181,-76.12132993038314,0.9011015118078731,,,,3,0,3,3
1788939926.9774146,893550511.0,-9.27734375,0.9140625,3.30078125,0.060546875,0.009765625,-0.015625,21.4375,-4.75,-31.6875,21.4375,-4.75,-31.6875,-0.007925583380928032,-0.5759972050048336,0.05809592160643797,0.8153461037175502,17.48600533554363,69.7768226473137,-166.6442531231396,0.58465576171875,0.44635009765625,0.3704833984375,-0.567138671875,17.273441669897498,69.96697235460763,-76.11248065444028,1.2360318608766603,,,,3,0,3,3
1788939926.9885154,893554618.0,-9.23828125,0.9140625,3.30078125,0.06640625,0.01171875,-0.0234375,21.4375,-4.75,-31.6875,21.4375,-4.75,-31.6875,-0.007669217927287992,-0.5759346983202404,0.05814101202101691,0.8153894953262087,17.44494405654047,69.7730353323184,-166.71016702183243,0.58465576171875,0.44635009765625,0.3704833984375,-0.567138671875,17.273441669897498,69.96697235460763,-76.11248065444028,1.2483090703910207,,,,3,0,3,3
1788939926.9905167,893558447.0,-9.234375,0.9140625,3.22265625,0.06640625,0.01171875,-0.0234375,21.4375,-4.75,-31.6875,21.4375,-4.75,-31.6875,-0.007395844650419733,-0.5760112343469921,0.058191039875427605,0.815334386780159,17.416541982020263,69.78834928803172,-166.76510532789064,0.58465576171875,0.44635009765625,0.3704833984375,-0.567138671875,17.273441669897498,69.96697235460763,-76.11248065444028,1.258589734962557,,,,3,0,3,3
1788939926.996463,893562430.0,-9.19921875,0.98828125,3.22265625,0.095703125,0.017578125,-0.02734375,18.125,-2.6875,-31.625,18.125,-2.6875,-31.625,-0.00725445378193302,-0.5760600746050053,0.05811758189028718,0.8153063902740045,17.376127509450008,69.79911637316455,-166.811044639636,0.58441162109375,0.44659423828125,0.370361328125,-0.56732177734375,17.297353443857208,69.98653251865363,-76.14518808638134,0.933088150822257,,,,3,0,3,3
1788939927.0005453,893565860.0,-9.16015625,0.98828125,3.109375,0.111328125,0.0234375,-0.033203125,18.125,-2.6875,-31.625,18.125,-2.6875,-31.625,-0.007111002686214554,-0.5761415039084263,0.058076966979484064,0.8152530079805883,17.347481036430192,69.81380908995185,-166.84806477484025,0.58441162109375,0.44659423828125,0.370361328125,-0.56732177734375,17.297353443857208,69.98653251865363,-76.14518808638134,0.9342354522427316,,,,3,0,3,3
1788939927.0050914,893570319.0,-9.16015625,1.02734375,3.109375,0.140625,0.02734375,-0.041015625,18.5,-5.5625,-31.9375,18.5,-5.5625,-31.9375,-0.006849583196470695,-0.5762375998656502,0.05848181303293399,0.8151583829265882,17.418490523072936,69.82584227246468,-166.8318481731467,0.583984375,0.44696044921875,0.37017822265625,-0.567626953125,17.32092003059041,70.01299889393067,-76.20430082341638,0.5871951214302463,,,,3,0,3,3
1788939927.0101047,893574425.0,-9.1953125,1.06640625,3.22265625,0.13671875,0.0234375,-0.048828125,18.5,-5.5625,-31.9375,18.5,-5.5625,-31.9375,-0.0066098031030330465,-0.5762785542128437,0.05885627755801495,0.8151044577533041,17.479617828985663,69.83044670732446,-166.82127803235707,0.583984375,0.44696044921875,0.37017822265625,-0.567626953125,17.32092003059041,70.01299889393067,-76.20430082341638,0.6438424924368938,,,,3,0,3,3
1788939927.0120862,893577602.0,-9.27734375,1.10546875,3.22265625,0.13671875,0.0234375,-0.048828125,18.5,-5.5625,-31.9375,18.5,-5.5625,-31.9375,-0.006430436173888605,-0.5763180012630763,0.05914435520997258,0.8150571490132106,17.528422358834717,69.83496472349591,-166.81094111947004,0.583984375,0.44696044921875,0.37017822265625,-0.567626953125,17.32092003059041,70.01299889393067,-76.20430082341638,0.6862013749982923,,,,3,0,3,3
1788939927.0171812,893581561.0,-9.31640625,1.1796875,3.30078125,0.125,0.029296875,-0.056640625,18.625,-2.5,-32.5625,18.625,-2.5,-32.5625,-0.006264093613209264,-0.5763716188251421,0.05909966290117717,0.8150237714257524,17.491607830925517,69.84646329486968,-166.85769697787362,0.58343505859375,0.44732666015625,0.3699951171875,-0.5679931640625,17.31978125465359,70.03363114443435,-76.283512746173,0.9000027134756928,,,,3,0,3,3
1788939927.0211163,893586268.0,-9.34765625,1.21875,3.3359375,0.09375,0.037109375,-0.064453125,18.625,-2.5,-32.5625,18.625,-2.5,-32.5625,-0.00610957598541565,-0.5764382306036895,0.05898708104321677,0.8149859898487625,17.439984887880723,69.86054719129126,-166.91267855857316,0.58343505859375,0.44732666015625,0.3699951171875,-0.5679931640625,17.31978125465359,70.03363114443435,-76.283512746173,0.8963184845057521,,,,3,0,3,3
1788939927.0211163,893589450.0,-9.34375,1.06640625,3.18359375,0.08203125,0.04296875,-0.0859375,18.625,-2.5,-32.5625,18.625,-2.5,-32.5625,-0.00595048606571216,-0.5765354565085584,0.05886086816489636,0.8149275165945279,17.386948066344214,69.87908042772774,-166.9682978996234,0.58294677734375,0.44757080078125,0.36993408203125,-0.56829833984375,17.28761708320197,70.05344545003456,-76.36902189994241,1.173875761537383,,,,3,0,3,3
1788939927.0211163,893593804.0,-9.34375,1.14453125,3.26171875,0.08203125,0.04296875,-0.0859375,18.625,-2.5,-32.5625,18.625,-2.5,-32.5625,-0.005762243446145877,-0.5766396297956067,0.058691719654202834,0.814867360951269,17.317606835979834,69.89983038635096,-167.03907163486838,0.58294677734375,0.44757080078125,0.36993408203125,-0.56829833984375,17.28761708320197,70.05344545003456,-76.36902189994241,1.1684557516937755,,,,3,0,3,3
1788939927.0288837,893597233.0,-9.34765625,1.2578125,3.3359375,0.08984375,0.044921875,-0.078125,18.625,-2.5,-32.5625,18.625,-2.5,-32.5625,-0.005653112252196202,-0.5766956536809522,0.05860255161056615,0.814834895111945,17.27929478734584,69.91111654040465,-167.0789515731724,0.58294677734375,0.44757080078125,0.36993408203125,-0.56829833984375,17.28761708320197,70.05344545003456,-76.36902189994241,1.1662655988060877,,,,3,0,3,3
1788939927.0371792,893601769.0,-9.34375,1.14453125,3.22265625,0.072265625,0.05078125,-0.08984375,17.9375,-5.5,-31.625,17.9375,-5.5,-31.625,-0.005419176784440566,-0.5768096968843777,0.05883936249559344,0.8147386915595966,17.311999750810024,69.92775790766487,-167.08489937963964,0.5823974609375,0.44781494140625,0.3699951171875,-0.568603515625,17.2332393408486,70.08966829063698,-76.47731739938314,1.317948006580737,,,,3,0,3,3
1788939927.039157,893605399.0,-9.31640625,1.10546875,3.109375,0.03515625,0.064453125,-0.09765625,17.9375,-5.5,-31.625,17.9375,-5.5,-31.625,-0.005252284168224728,-0.576951840926434,0.058950076729987616,0.8146311283127741,17.325888280287824,69.94879994968713,-167.09372774912592,0.5823974609375,0.44781494140625,0.3699951171875,-0.568603515625,17.2332393408486,70.08966829063698,-76.47731739938314,1.3249246262941803,,,,3,0,3,3
1788939927.0397186,893608782.0,-9.27734375,1.14453125,3.30078125,0.01171875,0.05859375,-0.0859375,17.9375,-5.5,-31.625,17.9375,-5.5,-31.625,-0.005145470833939643,-0.5770152118142918,0.05904780565400548,0.8145798463700485,17.339197448912916,69.95810251523751,-167.09719821764446,0.58197021484375,0.44793701171875,0.3702392578125,-0.56884765625,17.149613182190656,70.1445122920641,-76.60754404932062,0.9162097962347211,,,,3,0,3,3
1788939927.0416718,893613135.0,-9.234375,1.06640625,3.3359375,0.01171875,0.05859375,-0.0859375,17.9375,-5.5,-31.625,17.9375,-5.5,-31.625,-0.004987759838743955,-0.577072526687333,0.05916479286714473,0.8145317357104487,17.347724170271057,69.96735100132541,-167.11122812912677,0.58197021484375,0.44793701171875,0.3702392578125,-0.56884765625,17.149613182190656,70.1445122920641,-76.60754404932062,0.9287243276070285,,,,3,0,3,3
1788939927.0443733,893616764.0,-9.27734375,0.98828125,3.30078125,-0.017578125,0.0703125,-0.08984375,17.9375,-5.5,-31.625,17.9375,-5.5,-31.625,-0.004855504360079836,-0.5771499018944415,0.05921892845440102,0.8144737769464149,17.346004526644705,69.97977731094015,-167.1282104617437,0.58197021484375,0.44793701171875,0.3702392578125,-0.56884765625,17.149613182190656,70.1445122920641,-76.60754404932062,0.9355387657856196,,,,3,0,3,3
1788939927.0532274,893621024.0,-9.2734375,0.9140625,3.26171875,-0.03515625,0.076171875,-0.091796875,22.4375,-4.375,-37.6875,22.4375,-4.375,-37.6875,-0.004717144295731962,-0.5772820792496617,0.0588403371851478,0.8144083522698048,17.231563396612195,70.00652706287511,-167.22268661037538,0.58160400390625,0.44793701171875,0.3707275390625,-0.56890869140625,17.035561398450113,70.20388926732451,-76.71879816744922,0.8964123304064195,,,,3,0,3,3
1788939927.0532274,893624930.0,-9.234375,0.875,3.22265625,-0.04296875,0.07421875,-0.0859375,22.4375,-4.375,-37.6875,22.4375,-4.375,-37.6875,-0.004597627539122818,-0.5774127172473628,0.0584853864844375,0.8143419891850073,17.126605492961346,70.03226159274243,-167.30808346001822,0.58160400390625,0.44793701171875,0.3707275390625,-0.56890869140625,17.035561398450113,70.20388926732451,-76.71879816744922,0.8708333952374921,,,,3,0,3,3
1788939927.0649538,893628989.0,-9.23828125,0.875,3.18359375,-0.048828125,0.07421875,-0.083984375,21.8125,-5.3125,-37.875,21.8125,-5.3125,-37.875,-0.0043614951157716075,-0.5775971334663766,0.05821661800789022,0.8142317570320524,17.028682740947556,70.06634594332307,-167.40308711985597,0.581298828125,0.4478759765625,0.37127685546875,-0.56890869140625,16.913403073364574,70.26198400821794,-76.82244891246268,0.9033459184222832,,,,3,0,3,3
1788939927.0669286,893632866.0,-9.234375,0.875,3.22265625,-0.048828125,0.07421875,-0.083984375,21.8125,-5.3125,-37.875,21.8125,-5.3125,-37.875,-0.004124047216831021,-0.5776921692377643,0.057967242530660976,0.8141833630266042,16.926423874779935,70.08796122867234,-167.50421710880167,0.581298828125,0.4478759765625,0.37127685546875,-0.56890869140625,16.913403073364574,70.26198400821794,-76.82244891246268,0.8927793951035753,,,,3,0,3,3
1788939927.066907,893636196.0,-9.19921875,0.875,3.26171875,-0.05859375,0.078125,-0.068359375,21.8125,-5.3125,-37.875,21.8125,-5.3125,-37.875,-0.004005386071220619,-0.5777242481027751,0.057789007998706794,0.8141738638589604,16.859091355399762,70.09745923810412,-167.56658061411974,0.581298828125,0.4478759765625,0.37127685546875,-0.56890869140625,16.913403073364574,70.26198400821794,-76.82244891246268,0.8850815587919182,,,,3,0,3,3
1788939927.0689034,893640355.0,-9.15625,0.875,3.22265625,-0.056640625,0.083984375,-0.076171875,21.375,-3.5625,-36.0625,21.375,-3.5625,-36.0625,-0.003940022728570011,-0.5778651434412346,0.05739990843678304,0.81410171522236,16.755103003317213,70.12384371641997,-167.64373900556163,0.5810546875,0.44781494140625,0.37176513671875,-0.56884765625,16.81375890458927,70.30648799414148,-76.89089374689911,1.174964120378404,,,,3,0,3,3
1788939927.0689034,893644061.0,-9.1953125,0.8359375,3.3359375,-0.06640625,0.08984375,-0.06640625,21.375,-3.5625,-36.0625,21.375,-3.5625,-36.0625,-0.003901281711735683,-0.577968448426542,0.05706720605479697,0.8140519557236632,16.667494493820598,70.14369276080104,-167.70701492630738,0.5810546875,0.44781494140625,0.37176513671875,-0.56884765625,16.81375890458927,70.30648799414148,-76.89089374689911,1.1573115723746215,,,,3,0,3,3
1788939927.0762143,893648091.0,-9.27734375,0.8359375,3.109375,-0.06640625,0.08984375,-0.06640625,21.375,-3.5625,-36.0625,21.375,-3.5625,-36.0625,-0.0038544606836868776,-0.5781732575190147,0.056689985374756585,0.8139330887615386,16.57618799907643,70.17817546211899,-167.77089406213057,0.5810546875,0.44781494140625,0.37176513671875,-0.56884765625,16.81375890458927,70.30648799414148,-76.89089374689911,1.1366674874245535,,,,3,0,3,3
1788939927.0860586,893652274.0,-9.27734375,0.875,3.109375,-0.048828125,0.09765625,-0.060546875,22.0625,-2.9375,-31.4375,22.0625,-2.9375,-31.4375,-0.0038009406615613505,-0.5783931994562601,0.05633203146355779,0.813801918100484,16.490150425464957,70.21455021928679,-167.83163259947958,0.580810546875,0.44775390625,0.37237548828125,-0.56878662109375,16.699935339874294,70.3751859577899,-76.98585872709386,0.8347239933938565,,,,3,0,3,3
1788939927.0880117,893655904.0,-9.27734375,0.8359375,3.109375,-0.046875,0.0859375,-0.05859375,22.0625,-2.9375,-31.4375,22.0625,-2.9375,-31.4375,-0.0037474808125605315,-0.5785636680806895,0.05602618006335045,0.8137020987511868,16.413252412861144,70.24339052261226,-167.88756761379074,0.580810546875,0.44775390625,0.37237548828125,-0.56878662109375,16.699935339874294,70.3751859577899,-76.98585872709386,0.8132107066594936,,,,3,0,3,3
1788939927.0820873,893660163.0,-9.27734375,0.8359375,3.14453125,-0.046875,0.083984375,-0.0546875,18.4375,-4.1875,-32.0625,18.4375,-4.1875,-32.0625,-0.003601477541246099,-0.5787993064138863,0.05575699427340169,0.813553655172122,16.335232689330958,70.28240261475729,-167.95519449231347,0.58056640625,0.44781494140625,0.3729248046875,-0.56866455078125,16.63385008367056,70.44629536392566,-77.03920234941164,0.3700192158900341,,,,3,0,3,3
1788939927.086037,893664269.0,-9.234375,0.796875,3.109375,-0.05078125,0.087890625,-0.052734375,18.4375,-4.1875,-32.0625,18.4375,-4.1875,-32.0625,-0.003469526233815562,-0.5790333093726188,0.055493894375523725,0.8134056901151749,16.26111008998093,70.32080752418184,-168.01827437183033,0.58056640625,0.44781494140625,0.3729248046875,-0.56866455078125,16.63385008367056,70.44629536392566,-77.03920234941164,0.3325234075273691,,,,3,0,3,3
1788939927.0880117,893667546.0,-9.234375,0.796875,3.109375,-0.05078125,0.087890625,-0.052734375,18.4375,-4.1875,-32.0625,18.4375,-4.1875,-32.0625,-0.0033603581773612072,-0.5792196161688938,0.05528790286068388,0.8132875211358814,16.202094652562877,70.35140400653977,-168.0691239395701,0.58056640625,0.44781494140625,0.3729248046875,-0.56866455078125,16.63385008367056,70.44629536392566,-77.03920234941164,0.3055003876545375,,,,3,0,3,3
1788939927.1068625,893672382.0,-9.23828125,0.796875,3.0703125,-0.037109375,0.0859375,-0.0390625,18.0,-5.25,-32.9375,18.0,-5.25,-32.9375,-0.0032516398097798146,-0.5794591275055315,0.05533633142853702,0.8131140367827299,16.218415079866514,70.38555189115736,-168.0655144263348,0.580322265625,0.44781494140625,0.37335205078125,-0.56854248046875,16.564337477295894,70.48132691911016,-77.0685399006938,1.219984402966968,,,,3,0,3,3
1788939927.1078959,893676111.0,-9.19921875,0.796875,2.953125,-0.025390625,0.08203125,-0.029296875,18.0,-5.25,-32.9375,18.0,-5.25,-32.9375,-0.003189344243655378,-0.5796631737299831,0.05537209015024077,0.8129663982828397,16.236599950374202,70.41413209878208,-168.05521323700899,0.580322265625,0.44781494140625,0.37335205078125,-0.56854248046875,16.564337477295894,70.48132691911016,-77.0685399006938,1.2200211767162745,,,,3,0,3,3
1788939927.114862,893679294.0,-9.1953125,0.8359375,2.953125,-0.0078125,0.078125,-0.013671875,18.0,-5.25,-32.9375,18.0,-5.25,-32.9375,-0.003150787857080776,-0.5798266774937865,0.05545158512923642,0.8128445228388089,16.267421953050768,70.43606987466444,-168.03396290308112,0.58013916015625,0.44793701171875,0.37371826171875,-0.56842041015625,16.544600279788067,70.53586842259475,-77.08412965082906,1.0509926868475372,,,,3,0,3,3
1788939927.116864,893683647.0,-9.23828125,0.875,2.953125,-0.0078125,0.078125,-0.013671875,18.0,-5.25,-32.9375,18.0,-5.25,-32.9375,-0.003112155835368783,-0.5800483539967443,0.055567066483492786,0.8126786096816767,16.314041406834054,70.46542987991036,-167.99983370433404,0.58013916015625,0.44793701171875,0.37371826171875,-0.56842041015625,16.544600279788067,70.53586842259475,-77.08412965082906,1.0539018903653583,,,,3,0,3,3
1788939927.1207244,893687954.0,-9.27734375,0.875,3.03125,-0.005859375,0.080078125,-0.013671875,18.0,-5.25,-32.9375,18.0,-5.25,-32.9375,-0.0030630428412701033,-0.5802518771086945,0.0557083067905607,0.8125238220722627,16.3641049342823,70.49213698176679,-167.96525855221628,0.58013916015625,0.44793701171875,0.37371826171875,-0.56842041015625,16.544600279788067,70.53586842259475,-77.08412965082906,1.0599769506735144,,,,3,0,3,3
1788939927.1255383,893691613.0,-9.3125,0.875,3.03125,-0.005859375,0.0703125,-0.013671875,19.5,-3.125,-31.125,19.5,-3.125,-31.125,-0.0030469128002734228,-0.5804231268561066,0.0555252743129905,0.8124140902553542,16.327423667371107,70.51854609630284,-167.98803690766988,0.5799560546875,0.4481201171875,0.3740234375,-0.56829833984375,16.548860227759643,70.5902553584086,-77.08489467335846,0.7592397148506209,,,,3,0,3,3
1788939927.1288693,893695243.0,-9.3125,0.875,3.03125,-0.015625,0.06640625,-0.009765625,19.5,-3.125,-31.125,19.5,-3.125,-31.125,-0.003047335762047732,-0.5805863661879943,0.05533300240770346,0.8123105588295173,16.290474417995114,70.54366909159651,-168.00897101327237,0.5799560546875,0.4481201171875,0.3740234375,-0.56829833984375,16.548860227759643,70.5902553584086,-77.08489467335846,0.742382527104878,,,,3,0,3,3
1788939927.1358743,893699402.0,-9.27734375,0.9140625,3.03125,-0.01171875,0.060546875,-0.013671875,19.5,-3.125,-31.125,19.5,-3.125,-31.125,-0.003053972316186014,-0.5807649699742347,0.05511523782402132,0.8121976566473951,16.249098871391215,70.57114455857433,-168.03170954309763,0.57977294921875,0.4482421875,0.37420654296875,-0.56817626953125,16.550039831222243,70.60830763824455,-77.0609573519655,1.3803485874473151,,,,3,0,3,3
1788939927.1358743,893702979.0,-9.3125,0.98828125,3.03125,-0.01171875,0.060546875,-0.013671875,19.5,-3.125,-31.125,19.5,-3.125,-31.125,-0.003093436381713434,-0.5809313299598775,0.054948739992475924,0.8120898081466356,16.227000446283654,70.59555114344704,-168.03670919736834,0.57977294921875,0.4482421875,0.37420654296875,-0.56817626953125,16.550039831222243,70.60830763824455,-77.0609573519655,1.3715333005752506,,,,3,0,3,3
1788939927.1289432,893707585.0,-9.34375,1.06640625,3.03125,-0.0234375,0.046875,-0.001953125,19.5,-3.125,-31.125,19.5,-3.125,-31.125,-0.0032335671886762323,-0.5811295545031926,0.05478052184928288,0.8119587916588363,16.22697728126312,70.62236256962026,-168.01119781700203,0.57977294921875,0.4482421875,0.37420654296875,-0.56817626953125,16.550039831222243,70.60830763824455,-77.0609573519655,1.3597168422844608,,,,3,0,3,3
1788939927.1450748,893710868.0,-9.31640625,1.10546875,3.03125,-0.029296875,0.0390625,-0.0078125,17.75,-5.375,-36.75,17.75,-5.375,-36.75,-0.003281030979083722,-0.5812089679897312,0.05488276060477976,0.8118948533846141,16.272584725267688,70.63078565515573,-167.97004275533217,0.5797119140625,0.4483642578125,0.37445068359375,-0.568115234375,16.554810399220983,70.66384060403095,-77.08175159645884,0.0,,,,3,0,3,3
1788939927.1467435,893714774.0,-9.31640625,1.10546875,3.03125,-0.05078125,0.0390625,-0.013671875,17.75,-5.375,-36.75,17.75,-5.375,-36.75,-0.003352533312831219,-0.5813035507992877,0.05496392034037512,0.8118213533834542,16.31852057198623,70.64110854199633,-167.9248360431144,0.5797119140625,0.4483642578125,0.37445068359375,-0.568115234375,16.554810399220983,70.66384060403095,-77.08175159645884,0.0,,,,3,0,3,3
1788939927.1472528,893718633.0,-9.31640625,1.10546875,3.03125,-0.0625,0.033203125,-0.01953125,17.75,-5.375,-36.75,17.75,-5.375,-36.75,-0.0034264189170676793,-0.5813878211079597,0.05501955637177536,0.8117569276189743,16.356803307709672,70.65034216635128,-167.88499387695376,0.5797119140625,0.44830322265625,0.37469482421875,-0.56793212890625,16.532447800251116,70.67241472198316,-77.05835255031526,0.9737216918221142,,,,3,0,3,3
1788939927.1494355,893722710.0,-9.31640625,1.14453125,3.0703125,-0.0625,0.033203125,-0.01953125,17.75,-5.375,-36.75,17.75,-5.375,-36.75,-0.0035137576169815086,-0.5814603090935718,0.05508550394711015,0.8117001599797242,16.39939842281778,70.65753626420096,-167.84059386698908,0.5797119140625,0.44830322265625,0.37469482421875,-0.56793212890625,16.532447800251116,70.67241472198316,-77.05835255031526,0.9725799230556221,,,,3,0,3,3
1788939927.1538005,893727116.0,-9.34765625,1.1796875,3.0703125,-0.078125,0.025390625,-0.021484375,17.75,-5.375,-36.75,17.75,-5.375,-36.75,-0.003629082616756362,-0.5815260446073177,0.055124738047232336,0.8116498952491478,16.439285897212905,70.66363746844154,-167.79440927204624,0.5797119140625,0.44830322265625,0.37469482421875,-0.56793212890625,16.532447800251116,70.67241472198316,-77.05835255031526,0.9691411071102841,,,,3,0,3,3
1788939927.1538005,893730975.0,-9.3828125,1.10546875,3.03125,-0.091796875,0.0234375,-0.0390625,21.3125,-3.0625,-38.375,21.3125,-3.0625,-38.375,-0.003762648865409446,-0.5816343061733837,0.054791817236553166,0.8115942539961938,16.383199504725848,70.68074020519724,-167.81201972013946,0.57977294921875,0.4481201171875,0.37506103515625,-0.56781005859375,16.463257237206296,70.69891715848686,-77.09405351965866,0.6214381758896141,,,,3,0,3,3
1788939927.1538005,893734105.0,-9.2734375,1.02734375,3.0703125,-0.103515625,0.015625,-0.044921875,21.3125,-3.0625,-38.375,21.3125,-3.0625,-38.375,-0.0038557674521019973,-0.5816845097028062,0.05447558083007185,0.8115791244988917,16.31799724413926,70.6904623389612,-167.84349304462745,0.57977294921875,0.4481201171875,0.37506103515625,-0.56781005859375,16.463257237206296,70.69891715848686,-77.09405351965866,0.5878366068983399,,,,3,0,3,3
1788939927.1646504,893738911.0,-9.23828125,0.953125,3.18359375,-0.103515625,0.015625,-0.044921875,21.3125,-3.0625,-38.375,21.3125,-3.0625,-38.375,-0.003959178911162748,-0.5816934617107762,0.053989949943928445,0.8116046616489676,16.203242144084747,70.69684296795491,-167.90976266091496,0.57977294921875,0.4481201171875,0.37506103515625,-0.56781005859375,16.463257237206296,70.69891715848686,-77.09405351965866,0.541141419375017,,,,3,0,3,3
1788939927.1761885,893742118.0,-9.23828125,0.875,3.18359375,-0.119140625,0.013671875,-0.044921875,20.75,-4.875,-38.3125,20.75,-4.875,-38.3125,-0.003977686576654203,-0.5816210905561228,0.0538288138970124,0.8116671385637373,16.154510305700576,70.6889557008706,-167.94376776994815,0.579833984375,0.44775390625,0.37554931640625,-0.56768798828125,16.328488379146044,70.71397539816336,-77.16202856456268,0.8549995897295436,,,,3,0,3,3
1788939927.177845,893746424.0,-9.27734375,0.875,3.109375,-0.123046875,0.013671875,-0.044921875,20.75,-4.875,-38.3125,20.75,-4.875,-38.3125,-0.003939248762083543,-0.5816951725617404,0.053707505396675105,0.8116222719970316,16.120622644727245,70.70163463220449,-167.97076267911353,0.579833984375,0.44775390625,0.37554931640625,-0.56768798828125,16.328488379146044,70.71397539816336,-77.16202856456268,0.8491209340393584,,,,3,0,3,3
1788939927.1855152,893749807.0,-9.2734375,0.8359375,3.0703125,-0.12109375,0.01171875,-0.04296875,20.75,-4.875,-38.3125,20.75,-4.875,-38.3125,-0.003906923100194316,-0.5817945855886094,0.05351245150992993,0.8115640539508049,16.069796394972382,70.71874049158521,-168.00810209238156,0.5799560546875,0.4473876953125,0.3759765625,-0.56756591796875,16.209773197040036,70.72477571386797,-77.21955100421539,0.9066690451867613,,,,3,0,3,3
1788939927.1835475,893754113.0,-9.234375,0.796875,3.109375,-0.10546875,0.013671875,-0.033203125,20.75,-4.875,-38.3125,20.75,-4.875,-38.3125,-0.0037766705647611677,-0.5818170237548637,0.0532244622722693,0.8115675229112519,15.966180841647676,70.72855903998739,-168.09868603512126,0.5799560546875,0.4473876953125,0.3759765625,-0.56756591796875,16.209773197040036,70.72477571386797,-77.21955100421539,0.8968622236836206,,,,3,0,3,3
1788939927.1855152,893758366.0,-9.2734375,0.796875,3.109375,-0.10546875,0.013671875,-0.033203125,20.75,-4.875,-38.3125,20.75,-4.875,-38.3125,-0.003647099589798163,-0.5818703438845587,0.05296582622078233,0.8115468087701396,15.873888858334862,70.74212514906525,-168.18028226721694,0.5799560546875,0.4473876953125,0.3759765625,-0.56756591796875,16.209773197040036,70.72477571386797,-77.21955100421539,0.8895996629365963,,,,3,0,3,3
1788939927.1855152,893762025.0,-9.234375,0.76171875,3.109375,-0.095703125,0.01171875,-0.03125,17.5625,-3.125,-31.4375,17.5625,-3.125,-31.4375,-0.003670390474032302,-0.5818961835702473,0.052611728813790455,0.8115512095803772,15.78175992049054,70.75032527602923,-168.24132691880325,0.58001708984375,0.447021484375,0.37640380859375,-0.5675048828125,16.074216619382234,70.73714621382008,-77.30082608614622,0.9362478376374922,,,,3,0,3,3
1788939927.1855152,893765955.0,-9.27734375,0.72265625,3.22265625,-0.087890625,0.009765625,-0.01953125,17.5625,-3.125,-31.4375,17.5625,-3.125,-31.4375,-0.0036993490392682802,-0.5818762150959189,0.05227710201458273,0.8115870191959027,15.69164326292913,70.75183579339244,-168.30153497235335,0.58001708984375,0.447021484375,0.37640380859375,-0.5675048828125,16.074216619382234,70.73714621382008,-77.30082608614622,0.9187043418912366,,,,3,0,3,3
1788939927.2015219,893769714.0,-9.23828125,0.8359375,3.18359375,-0.07421875,0.013671875,-0.009765625,18.8125,-5.125,-32.125,18.8125,-5.125,-32.125,-0.0037354758209820543,-0.5818574942764081,0.05233163952877402,0.811596760761772,15.71212155235284,70.74779783247706,-168.28259457299066,0.58013916015625,0.44677734375,0.376708984375,-0.5673828125,16.00378218279195,70.74753567874708,-77.32826319111115,0.8399163124419249,,,,3,0,3,3
1788939927.2073803,893774221.0,-9.23828125,0.8359375,3.18359375,-0.068359375,0.013671875,-0.01171875,18.8125,-5.125,-32.125,18.8125,-5.125,-32.125,-0.003766806464392554,-0.5818352770019152,0.05240504083429436,0.8116078075649102,15.736600435586752,70.74309967252833,-168.26160321506924,0.58013916015625,0.44677734375,0.376708984375,-0.5673828125,16.00378218279195,70.74753567874708,-77.32826319111115,0.8426474537749871,,,,3,0,3,3
1788939927.2101853,893777797.0,-9.23828125,0.8359375,3.14453125,-0.068359375,0.013671875,-0.01171875,18.8125,-5.125,-32.125,18.8125,-5.125,-32.125,-0.003790241581127237,-0.5818349278703918,0.05246819230411126,0.8116038686299809,15.75881617993045,70.74169509192669,-168.24266192146456,0.58013916015625,0.44677734375,0.376708984375,-0.5673828125,16.00378218279195,70.74753567874708,-77.32826319111115,0.8450638107004421,,,,3,0,3,3
1788939927.2101853,893781457.0,-9.19921875,0.796875,3.14453125,-0.0625,0.01171875,-0.01171875,18.625,-3.0,-30.5625,18.625,-3.0,-30.5625,-0.003821220135418579,-0.5818356687757712,0.05218919925394372,0.8116211802917418,15.686747564166522,70.74520949276793,-168.2892189550266,0.5802001953125,0.44659423828125,0.376953125,-0.5672607421875,15.9484344535011,70.7497030415344,-77.3378800048557,1.160898523867443,,,,3,0,3,3
1788939927.2175539,893785086.0,-9.15625,0.76171875,3.14453125,-0.0390625,0.015625,-0.001953125,18.625,-3.0,-30.5625,18.625,-3.0,-30.5625,-0.00383367856156051,-0.5818368050361084,0.0519606373052863,0.8116349717606363,15.62523126476227,70.74839714351899,-168.33089621995768,0.5802001953125,0.44659423828125,0.376953125,-0.5672607421875,15.9484344535011,70.7497030415344,-77.3378800048557,1.1506382277496188,,,,3,0,3,3
1788939927.2175539,893789246.0,-9.15625,0.72265625,3.109375,-0.03125,0.01953125,0.005859375,18.625,-3.0,-30.5625,18.625,-3.0,-30.5625,-0.00383945399689751,-0.581863894579652,0.05171512997518848,0.8116312044945381,15.560177415654325,70.75550129005313,-168.37524461442536,0.58026123046875,0.446533203125,0.37713623046875,-0.56719970703125,15.926649738203137,70.77313564846487,-77.35670167798887,0.4558750589876373,,,,3,0,3,3
1788939927.2175539,893793599.0,-9.078125,0.72265625,3.109375,-0.03125,0.01953125,0.005859375,18.625,-3.0,-30.5625,18.625,-3.0,-30.5625,-0.0038488140026001613,-0.5818771174893018,0.051463175113146555,0.8116376952682693,15.492632908312354,70.7607151319275,-168.42127023466878,0.58026123046875,0.446533203125,0.37713623046875,-0.56719970703125,15.926649738203137,70.77313564846487,-77.35670167798887,0.42882490714657057,,,,3,0,3,3
1788939927.2175539,893797429.0,-9.078125,0.76171875,3.109375,-0.015625,0.009765625,0.029296875,18.625,-3.0,-30.5625,18.625,-3.0,-30.5625,-0.0038869092169683947,-0.5818669669717195,0.05129233235800919,0.8116556051214989,15.451158474887915,70.76102330421824,-168.4455615407532,0.58026123046875,0.446533203125,0.37713623046875,-0.56719970703125,15.926649738203137,70.77313564846487,-77.35670167798887,0.40731780360002506,,,,3,0,3,3
1788939927.235427,893801488.0,-9.078125,0.76171875,3.109375,-0.013671875,0.013671875,0.03515625,17.75,-3.1875,-32.0625,17.75,-3.1875,-32.0625,-0.0039335825940955155,-0.5818561829629967,0.051124834006905685,0.8116736786563141,15.412234810118829,70.76103310390691,-168.46687351623297,0.580322265625,0.44659423828125,0.377197265625,-0.56707763671875,15.961053115435707,70.78655176779617,-77.31873221067951,0.0,,,,3,0,3,3
1788939927.235427,893804618.0,-9.16015625,0.875,3.03125,0.00390625,0.009765625,0.044921875,17.75,-3.1875,-32.0625,17.75,-3.1875,-32.0625,-0.00402454907783343,-0.5819179792110286,0.05103672291495249,0.8116344752348653,15.411229993535223,70.76905040106158,-168.45310677905897,0.580322265625,0.44659423828125,0.377197265625,-0.56707763671875,15.961053115435707,70.78655176779617,-77.31873221067951,0.0,,,,3,0,3,3
1788939927.2450871,893808477.0,-9.1953125,0.875,3.03125,0.009765625,0.017578125,0.037109375,17.75,-3.1875,-32.0625,17.75,-3.1875,-32.0625,-0.004113872898138807,-0.5820156296289365,0.05093614400868565,0.8115703248338599,15.409881999324654,70.78219676671694,-168.43876433841552,0.58038330078125,0.44671630859375,0.37713623046875,-0.56695556640625,16.026903676129184,70.78734954955473,-77.25189634153118,0.0,,,,3,0,3,3
1788939927.2470403,893812354.0,-9.3125,0.875,3.03125,0.009765625,0.017578125,0.037109375,17.75,-3.1875,-32.0625,17.75,-3.1875,-32.0625,-0.00418856232349623,-0.5821323116767725,0.050860623002247085,0.8114909886593581,15.414569189089065,70.79787708819212,-168.42163682503084,0.58038330078125,0.44671630859375,0.37713623046875,-0.56695556640625,16.026903676129184,70.78734954955473,-77.25189634153118,0.0,,,,3,0,3,3
1788939927.2491314,893816960.0,-9.3125,0.875,2.9921875,0.0078125,0.009765625,0.041015625,17.75,-3.1875,-32.0625,17.75,-3.1875,-32.0625,-0.00428119070976266,-0.5822689611416555,0.050804193054321836,0.8113959959632676,15.430092978584259,70.81569174872658,-168.3937560929459,0.58038330078125,0.44671630859375,0.37713623046875,-0.56695556640625,16.026903676129184,70.78734954955473,-77.25189634153118,0.0,,,,3,0,3,3
1788939927.2506707,893820819.0,-9.38671875,0.875,2.953125,-0.001953125,0.005859375,0.04296875,20.4375,-4.3125,-38.0,20.4375,-4.3125,-38.0,-0.004353562805279132,-0.5823871395529933,0.05086219044757123,0.8113071574669225,15.47207784643793,70.82972275351845,-168.35051019187307,0.5804443359375,0.44683837890625,0.37701416015625,-0.56683349609375,16.099894417512203,70.77580103804378,-77.17155111168958,0.6245952841933828,,,,3,0,3,3
1788939927.2506707,893824725.0,-9.4609375,0.9140625,2.87890625,0.005859375,0.0,0.052734375,20.4375,-4.3125,-38.0,20.4375,-4.3125,-38.0,-0.004441037531231686,-0.5824953042280727,0.05095554606779279,0.8112231690865493,15.526052793203819,70.84157994772278,-168.29695197465935,0.5804443359375,0.44683837890625,0.37701416015625,-0.56683349609375,16.099894417512203,70.77580103804378,-77.17155111168958,0.6221871412296525,,,,3,0,3,3
1788939927.2487175,893828755.0,-9.54296875,0.98828125,2.80078125,0.005859375,0.0,0.052734375,20.4375,-4.3125,-38.0,20.4375,-4.3125,-38.0,-0.004542623628850314,-0.5826041957473441,0.051067061061292086,0.8111373933821072,15.58804466806842,70.85299383081626,-168.23571217265587,0.5804443359375,0.44683837890625,0.37701416015625,-0.56683349609375,16.099894417512203,70.77580103804378,-77.17155111168958,0.6204778604914268,,,,3,0,3,3
1788939927.2651932,893832738.0,-9.58203125,1.06640625,2.83984375,-0.005859375,-0.013671875,0.048828125,20.6875,-5.875,-38.75,20.6875,-5.875,-38.75,-0.004642756800547869,-0.5826519572780896,0.051253699424841474,0.8110907469479419,15.66491794434901,70.85494429663345,-168.1659402431299,0.58056640625,0.4468994140625,0.37689208984375,-0.56671142578125,16.164839297310778,70.76021432647592,-77.09572555782843,0.9186516036077629,,,,3,0,3,3
1788939927.2651932,893836268.0,-9.6171875,1.02734375,2.83984375,-0.0078125,-0.025390625,0.041015625,20.6875,-5.875,-38.75,20.6875,-5.875,-38.75,-0.004714701681418328,-0.5826825807973914,0.05140162480837917,0.8110589710929811,15.723686119994777,70.85562157985768,-168.11341525690892,0.58056640625,0.4468994140625,0.37689208984375,-0.56671142578125,16.164839297310778,70.76021432647592,-77.09572555782843,0.9209433960982605,,,,3,0,3,3
1788939927.2761385,893840627.0,-9.65625,1.02734375,2.87890625,-0.021484375,-0.041015625,0.025390625,20.6875,-5.875,-38.75,20.6875,-5.875,-38.75,-0.004790696494032416,-0.5826917665047524,0.051544603940489764,0.8110428523076268,15.779719862951929,70.85333883685705,-168.06290179365527,0.58074951171875,0.4468994140625,0.37677001953125,-0.56658935546875,16.221686686409164,70.74059884747304,-77.02448731069934,1.048070566343234,,,,3,0,3,3
1788939927.2761385,893843757.0,-9.6171875,1.02734375,2.91796875,-0.01953125,-0.048828125,0.017578125,20.6875,-5.875,-38.75,20.6875,-5.875,-38.75,-0.004833690922343382,-0.5826838964943519,0.05165036122304528,0.811041523217989,15.817104053978413,70.84988564572869,-168.03069747531293,0.58074951171875,0.4468994140625,0.37677001953125,-0.56658935546875,16.221686686409164,70.74059884747304,-77.02448731069934,1.0500095253927864,,,,3,0,3,3
1788939927.2811625,893848110.0,-9.578125,1.02734375,2.91796875,-0.01953125,-0.048828125,0.017578125,20.6875,-5.875,-38.75,20.6875,-5.875,-38.75,-0.004894171449175158,-0.5826709974142205,0.05180005799152818,0.8110408805049334,15.86975042530742,70.84475390559118,-167.98541557472524,0.58074951171875,0.4468994140625,0.37677001953125,-0.56658935546875,16.221686686409164,70.74059884747304,-77.02448731069934,1.0530371261603095,,,,3,0,3,3
1788939927.2811625,893851869.0,-9.54296875,0.953125,2.953125,-0.03515625,-0.05859375,0.009765625,22.375,-3.3125,-31.4375,22.375,-3.3125,-31.4375,-0.004957578486403627,-0.5826887329543411,0.0516841983054945,0.8110351450764227,15.851351997092145,70.84766394069696,-167.98905819055886,0.5809326171875,0.44671630859375,0.37664794921875,-0.566650390625,16.204120483910234,70.7133782797093,-77.03724481678607,0.8735540802649259,,,,3,0,3,3
1788939927.2811625,893855599.0,-9.5,0.953125,2.91796875,-0.03125,-0.068359375,0.0078125,22.375,-3.3125,-31.4375,22.375,-3.3125,-31.4375,-0.005012985690191134,-0.58269327994258,0.05158251130791625,0.8110380114466873,15.83404963011588,70.8487132216513,-167.9934384289854,0.5809326171875,0.44671630859375,0.37664794921875,-0.566650390625,16.204120483910234,70.7133782797093,-77.03724481678607,0.8659872011548575,,,,3,0,3,3
1788939927.2811625,893859958.0,-9.46484375,0.98828125,2.9921875,-0.03125,-0.0859375,0.00390625,22.375,-3.3125,-31.4375,22.375,-3.3125,-31.4375,-0.005099164481404744,-0.5826642650082999,0.05145055997480718,0.8110667005137173,15.810894111626546,70.84501500251292,-167.9986802470561,0.5811767578125,0.44647216796875,0.37652587890625,-0.56671142578125,16.178604501165527,70.68214998681215,-77.0544405776717,0.4389831598743684,,,,3,0,3,3
1788939927.2811625,893863335.0,-9.34765625,0.98828125,3.109375,-0.03125,-0.0859375,0.00390625,22.375,-3.3125,-31.4375,22.375,-3.3125,-31.4375,-0.005224269660569942,-0.5825680618293055,0.05127580024482772,0.8111460735602514,15.7766064048305,70.83198916859953,-168.00838601227835,0.5811767578125,0.44647216796875,0.37652587890625,-0.56671142578125,16.178604501165527,70.68214998681215,-77.0544405776717,0.4071014457791421,,,,3,0,3,3
1788939927.2999606,893867941.0,-9.31640625,0.9140625,3.0703125,-0.03125,-0.0859375,-0.001953125,22.375,-3.3125,-31.4375,22.375,-3.3125,-31.4375,-0.00528356354918307,-0.5824715950937502,0.05100301500779801,0.8112321599426876,15.70192378614833,70.82162478610272,-168.05582252505107,0.5811767578125,0.44647216796875,0.37652587890625,-0.56671142578125,16.178604501165527,70.68214998681215,-77.0544405776717,0.37354280469880297,,,,3,0,3,3
1788939927.3048134,893871224.0,-9.2734375,0.875,3.0703125,-0.03515625,-0.0859375,-0.0078125,18.4375,-2.8125,-31.9375,18.4375,-2.8125,-31.9375,-0.005316458951522615,-0.5823838124180771,0.050788630789022224,0.8113084156350033,15.639416957098886,70.81209025845953,-168.0980504318823,0.58135986328125,0.44610595703125,0.3763427734375,-0.56689453125,16.10192825473114,70.6256425931588,-77.11117230932247,0.8484254503711595,,,,3,0,3,3
1788939927.3048134,893875330.0,-9.23828125,0.875,3.109375,-0.02734375,-0.083984375,-0.0078125,18.4375,-2.8125,-31.9375,18.4375,-2.8125,-31.9375,-0.005351987879988988,-0.5822450079154032,0.05053376194442556,0.8114237153836882,15.56108743714993,70.79608610025682,-168.15259080860994,0.58135986328125,0.44610595703125,0.3763427734375,-0.56689453125,16.10192825473114,70.6256425931588,-77.11117230932247,0.8352125195399971,,,,3,0,3,3
1788939927.3116379,893879289.0,-9.16015625,0.8359375,3.14453125,-0.0078125,-0.083984375,-0.009765625,18.4375,-2.8125,-31.9375,18.4375,-2.8125,-31.9375,-0.00534488257702183,-0.5820798800129419,0.050329600309812005,0.8115549130200689,15.486202424597465,70.77652711363932,-168.21138016358972,0.58154296875,0.44580078125,0.376220703125,-0.56707763671875,16.03549144596664,70.59338735759378,-77.17926280035053,0.0,,,,3,0,3,3
1788939927.3116379,893883643.0,-9.15625,0.796875,3.18359375,-0.0078125,-0.083984375,-0.009765625,18.4375,-2.8125,-31.9375,18.4375,-2.8125,-31.9375,-0.005321346646667192,-0.5818850817601131,0.05011467243255643,0.8117080475773726,15.402352504562074,70.75334250249828,-168.27961919890612,0.58154296875,0.44580078125,0.376220703125,-0.56707763671875,16.03549144596664,70.59338735759378,-77.17926280035053,0.0,,,,3,0,3,3
1788939927.3197658,893887172.0,-9.15625,0.796875,3.18359375,0.0078125,-0.087890625,-0.00390625,18.4375,-2.8125,-31.9375,18.4375,-2.8125,-31.9375,-0.005294995158372255,-0.5817220507980493,0.04996810589078936,0.8118341006851532,15.340354818223057,70.73356893698326,-168.33183945885557,0.58154296875,0.44580078125,0.376220703125,-0.56707763671875,16.03549144596664,70.59338735759378,-77.17926280035053,0.0,,,,3,0,3,3
1788939927.3193448,893891532.0,-9.16015625,0.796875,3.22265625,0.01171875,-0.083984375,0.00390625,18.625,-3.5,-30.625,18.625,-3.5,-30.625,-0.005246450580782826,-0.5814581938339268,0.04992096447480034,0.8120263178528124,15.292282159825055,70.6989503588829,-168.38021604639567,0.5816650390625,0.445556640625,0.37591552734375,-0.56732177734375,15.990931318326968,70.53785167615275,-77.22866415299963,0.547154557062285,,,,3,0,3,3
1788939927.3237097,893895438.0,-9.1171875,0.76171875,3.18359375,0.03125,-0.0859375,0.009765625,18.625,-3.5,-30.625,18.625,-3.5,-30.625,-0.00516537408326241,-0.5812335894139932,0.04988225491790646,0.8121899987637196,15.24418515755095,70.67019563867844,-168.43195407508892,0.5816650390625,0.445556640625,0.37591552734375,-0.56732177734375,15.990931318326968,70.53785167615275,-77.22866415299963,0.5489094146850109,,,,3,0,3,3
1788939927.3217566,893899297.0,-9.078125,0.68359375,3.26171875,0.041015625,-0.08203125,0.015625,18.625,-3.5,-30.625,18.625,-3.5,-30.625,-0.005080416374445343,-0.5810165587946211,0.04986949824767876,0.8123465891603433,15.203451295331,70.64217848952799,-168.47877905395762,0.58172607421875,0.4454345703125,0.37554931640625,-0.56756591796875,15.978472276969454,70.4861238511114,-77.2585426255868,0.8734154066842139,,,,3,0,3,3
1788939927.3237097,893902197.0,-9.078125,0.76171875,3.18359375,0.041015625,-0.08203125,0.015625,18.625,-3.5,-30.625,18.625,-3.5,-30.625,-0.005021777173156181,-0.5808518334908364,0.04986109438753311,0.8124652611347973,15.174109124084248,70.62078459776028,-168.51237012111534,0.58172607421875,0.4454345703125,0.37554931640625,-0.56756591796875,15.978472276969454,70.4861238511114,-77.2585426255868,0.875023513571267,,,,3,0,3,3
1788939927.3392742,893906704.0,-9.1171875,0.76171875,3.14453125,0.060546875,-0.08203125,0.01953125,18.625,-3.5,-30.625,18.625,-3.5,-30.625,-0.0048808823470969575,-0.5806321570637654,0.04983849317407941,0.8126245133941812,15.11980495428061,70.59356331152723,-168.5765532931178,0.58172607421875,0.4454345703125,0.37554931640625,-0.56756591796875,15.978472276969454,70.4861238511114,-77.2585426255868,0.8812533967102933,,,,3,0,3,3
1788939927.3452754,893910663.0,-9.12109375,0.8359375,3.14453125,0.08203125,-0.08203125,0.02734375,17.0,-5.125,-35.5,17.0,-5.125,-35.5,-0.004787575096988385,-0.5804728027836772,0.050195658192199316,0.8127169250432803,15.186177122121135,70.56843308099323,-168.54737157677494,0.581787109375,0.4454345703125,0.3751220703125,-0.56781005859375,16.00686244715132,70.44606195457015,-77.27171661858367,0.6441767233467015,,,,3,0,3,3
1788939927.3482754,893914569.0,-9.16015625,0.875,3.14453125,0.099609375,-0.076171875,0.01953125,17.0,-5.125,-35.5,17.0,-5.125,-35.5,-0.004676402919056631,-0.580333625584686,0.05056988045499774,0.8127937631787289,15.25565041069403,70.5461630912911,-168.5179484839507,0.581787109375,0.4454345703125,0.3751220703125,-0.56781005859375,16.00686244715132,70.44606195457015,-77.27171661858367,0.6637517220868699,,,,3,0,3,3
1788939927.3508415,893918399.0,-9.23828125,0.875,3.14453125,0.099609375,-0.076171875,0.01953125,17.0,-5.125,-35.5,17.0,-5.125,-35.5,-0.004562941560695178,-0.580210301323026,0.05093579455544891,0.8128596008142871,15.323782527619857,70.52622736947073,-168.4893613876062,0.581787109375,0.4454345703125,0.3751220703125,-0.56781005859375,16.00686244715132,70.44606195457015,-77.27171661858367,0.6859564385822557,,,,3,0,3,3
1788939927.355794,893922782.0,-9.23828125,0.953125,3.109375,0.103515625,-0.072265625,0.015625,20.9375,-5.1875,-37.3125,20.9375,-5.1875,-37.3125,-0.004474694629798321,-0.5800976693642323,0.051351639155472174,0.812914312988892,15.41153861353905,70.50658184787589,-168.44318476253434,0.581787109375,0.445556640625,0.37457275390625,-0.568115234375,16.066517695868935,70.40696603745982,-77.2783407272006,0.0,,,,3,0,3,3
1788939927.358796,893926411.0,-9.34765625,0.98828125,3.109375,0.099609375,-0.07421875,0.005859375,20.9375,-5.1875,-37.3125,20.9375,-5.1875,-37.3125,-0.004396110581996716,-0.5800181882324841,0.05167093641330212,0.812951222313756,15.477432801169908,70.49265443540435,-168.41010235293112,0.581787109375,0.445556640625,0.37457275390625,-0.568115234375,16.066517695868935,70.40696603745982,-77.2783407272006,0.0,,,,3,0,3,3
1788939927.3648293,893930671.0,-9.34375,1.10546875,3.14453125,0.09375,-0.07421875,-0.0078125,21.125,-3.4375,-37.8125,21.125,-3.4375,-37.8125,-0.004456008055625854,-0.5799368091571092,0.05177284633928037,0.8130024684826045,15.509378672396128,70.47893710654245,-168.38169273164064,0.58172607421875,0.44561767578125,0.3740234375,-0.56842041015625,16.100404502789786,70.34836073040299,-77.28431734867465,0.9618416352208039,,,,3,0,3,3
1788939927.369053,893933800.0,-9.34765625,1.14453125,3.109375,0.08984375,-0.080078125,-0.009765625,21.125,-3.4375,-37.8125,21.125,-3.4375,-37.8125,-0.004492496475482351,-0.5798859624358651,0.0518711245621832,0.8130322714885938,15.538722363815578,70.46989027231598,-168.35748519079232,0.58172607421875,0.44561767578125,0.3740234375,-0.56842041015625,16.100404502789786,70.34836073040299,-77.28431734867465,0.9627815668454442,,,,3,0,3,3
1788939927.3704524,893938054.0,-9.34765625,1.14453125,3.14453125,0.08984375,-0.080078125,-0.009765625,21.125,-3.4375,-37.8125,21.125,-3.4375,-37.8125,-0.004558803878013706,-0.5797929865601328,0.05199659628812753,0.8130901942695736,15.577230882084592,70.45412152113316,-168.32393642517653,0.58172607421875,0.44561767578125,0.3740234375,-0.56842041015625,16.100404502789786,70.34836073040299,-77.28431734867465,0.9632931343209525,,,,3,0,3,3
1788939927.3763566,893941913.0,-9.34375,1.10546875,3.109375,0.076171875,-0.083984375,-0.021484375,21.5,-3.375,-37.375,21.5,-3.375,-37.375,-0.004582907065853092,-0.5797335156524306,0.05202881366287596,0.8131304018058435,15.5850468819994,70.44506528066258,-168.31684112126084,0.58160400390625,0.44561767578125,0.37359619140625,-0.56884765625,16.07969885024671,70.31303696959927,-77.36722051735434,0.748957913815321,,,,3,0,3,3
1788939927.3789613,893945443.0,-9.2734375,1.10546875,3.109375,0.060546875,-0.087890625,-0.033203125,21.5,-3.375,-37.375,21.5,-3.375,-37.375,-0.004616519999594332,-0.5796611032713588,0.05202413171328694,0.8131821338524371,15.583228706861206,70.43458460827806,-168.31557024925965,0.58160400390625,0.44561767578125,0.37359619140625,-0.56884765625,16.07969885024671,70.31303696959927,-77.36722051735434,0.7464285513358428,,,,3,0,3,3
1788939927.3849905,893949602.0,-9.27734375,1.14453125,3.18359375,0.044921875,-0.091796875,-0.033203125,21.5,-3.375,-37.375,21.5,-3.375,-37.375,-0.004697953806578384,-0.5795026810796983,0.05202287993781055,0.8132946525180459,15.583243371746825,70.41138000479182,-168.30888893348188,0.58154296875,0.44549560546875,0.37322998046875,-0.5692138671875,16.035100772412356,70.26477011127739,-77.44340915134269,1.0019839142872733,,,,3,0,3,3
1788939927.3849905,893954155.0,-9.23828125,1.14453125,3.18359375,0.044921875,-0.091796875,-0.033203125,21.5,-3.375,-37.375,21.5,-3.375,-37.375,-0.004785243337415653,-0.5793202138691639,0.05202537920361065,0.8134239676623184,15.583103217391583,70.38472455352294,-168.30220920846193,0.58154296875,0.44549560546875,0.37322998046875,-0.5692138671875,16.035100772412356,70.26477011127739,-77.44340915134269,0.9978455461139628,,,,3,0,3,3
1788939927.3891299,893957785.0,-9.19921875,1.14453125,3.22265625,0.041015625,-0.095703125,-0.02734375,21.5,-3.375,-37.375,21.5,-3.375,-37.375,-0.004848623194311539,-0.5791373164490992,0.05203071141637025,0.8135534798762537,15.579153102582676,70.35842660223612,-168.3015374246843,0.58154296875,0.44549560546875,0.37322998046875,-0.5692138671875,16.035100772412356,70.26477011127739,-77.44340915134269,0.9952348020077654,,,,3,0,3,3
1788939927.3951294,893962044.0,-9.15625,1.14453125,3.26171875,0.03125,-0.095703125,-0.04296875,17.4375,-5.1875,-32.6875,17.4375,-5.1875,-32.6875,-0.004764017696158999,-0.5789376783218908,0.052236871038840255,0.813682848571064,15.600816916500582,70.32977621799051,-168.30396723549364,0.58154296875,0.4453125,0.3729248046875,-0.56964111328125,15.968549494785586,70.23376249956891,-77.56231702850162,0.0,,,,3,0,3,3
1788939927.3991284,893965174.0,-9.12109375,1.1796875,3.26171875,0.017578125,-0.09375,-0.041015625,17.4375,-5.1875,-32.6875,17.4375,-5.1875,-32.6875,-0.00472094234250179,-0.5787926332325872,0.052371651633706454,0.8137776173649925,15.615903595511574,70.30883147872338,-168.3036397473987,0.58154296875,0.4453125,0.3729248046875,-0.56964111328125,15.968549494785586,70.23376249956891,-77.56231702850162,0.0,,,,3,0,3,3
1788939927.4050918,893968933.0,-9.15625,1.14453125,3.26171875,0.005859375,-0.099609375,-0.052734375,17.4375,-5.1875,-32.6875,17.4375,-5.1875,-32.6875,-0.004658689726321264,-0.5786125177198833,0.05250467702290941,0.8138974811600118,15.623528322423157,70.28348406497189,-168.31223530378975,0.58148193359375,0.44500732421875,0.3726806640625,-0.57000732421875,15.860714281341284,70.17434747600983,-77.66915326370041,1.0707136157283008,,,,3,0,3,3
1788939927.4061022,893973486.0,-9.12109375,1.02734375,3.3359375,0.005859375,-0.099609375,-0.052734375,17.4375,-5.1875,-32.6875,17.4375,-5.1875,-32.6875,-0.004559629629618236,-0.5783629000288757,0.05265103024245906,0.8140659891324764,15.621266542894084,70.24914866508185,-168.33489879787058,0.58148193359375,0.44500732421875,0.3726806640625,-0.57000732421875,15.860714281341284,70.17434747600983,-77.66915326370041,1.076237312940228,,,,3,0,3,3
1788939927.409102,893977116.0,-9.16015625,0.953125,3.4140625,-0.001953125,-0.095703125,-0.060546875,17.4375,-5.1875,-32.6875,17.4375,-5.1875,-32.6875,-0.004461275350032826,-0.578152479316675,0.05272909221536643,0.814210937359832,15.604185306644352,70.22113656456347,-168.36666761558178,0.58148193359375,0.44500732421875,0.3726806640625,-0.57000732421875,15.860714281341284,70.17434747600983,-77.66915326370041,1.0809905756441827,,,,3,0,3,3
1788939927.4151258,893981175.0,-9.12109375,0.875,3.4921875,-0.013671875,-0.09765625,-0.0625,18.5,-6.125,-32.25,18.5,-6.125,-32.25,-0.004345479788225063,-0.5779189419543995,0.05279893422928213,0.814372817498208,15.579469114498208,70.19041369819281,-168.4068483664142,0.58154296875,0.44464111328125,0.37249755859375,-0.5704345703125,15.740075464394451,70.13974185013845,-77.82079220965898,0.0,,,,3,0,3,3
1788939927.4175808,893985282.0,-9.12109375,0.875,3.4921875,-0.01171875,-0.083984375,-0.0625,18.5,-6.125,-32.25,18.5,-6.125,-32.25,-0.004227350923084286,-0.5777062190504975,0.05287368966785742,0.8145195067740606,15.55771760766807,70.16251248101447,-168.44464546508823,0.58154296875,0.44464111328125,0.37249755859375,-0.5704345703125,15.740075464394451,70.13974185013845,-77.82079220965898,0.0,,,,3,0,3,3
1788939927.4204783,893989111.0,-9.16015625,0.875,3.453125,-0.01171875,-0.083984375,-0.0625,18.5,-6.125,-32.25,18.5,-6.125,-32.25,-0.004115419336683571,-0.577516862604383,0.05295329678522474,0.8146491791506631,15.540727576628326,70.13762185449181,-168.47755351799447,0.58154296875,0.44464111328125,0.37249755859375,-0.5704345703125,15.740075464394451,70.13974185013845,-77.82079220965898,0.0,,,,3,0,3,3
1788939927.426398,893993494.0,-9.1953125,0.875,3.4140625,-0.005859375,-0.068359375,-0.060546875,17.9375,-6.0,-31.6875,17.9375,-6.0,-31.6875,-0.003982062301531072,-0.5773398030504222,0.05306718249214718,0.8147679234824303,15.530293031029,70.11433721560485,-168.50848293100626,0.58148193359375,0.4442138671875,0.3724365234375,-0.57080078125,15.579059197062888,70.0928198918956,-77.96922906008147,0.9936378378242267,,,,3,0,3,3
1788939927.4293995,893997124.0,-9.23828125,0.8359375,3.4140625,0.009765625,-0.0625,-0.052734375,17.9375,-6.0,-31.6875,17.9375,-6.0,-31.6875,-0.0038578096556367647,-0.5772031950761161,0.05319271715468202,0.8148571186044128,15.528554959000372,70.09625047380297,-168.53089476489706,0.58148193359375,0.4442138671875,0.3724365234375,-0.57080078125,15.579059197062888,70.0928198918956,-77.96922906008147,1.0030276901870059,,,,3,0,3,3
1788939927.4353387,894000207.0,-9.1953125,0.8359375,3.4140625,0.017578125,-0.048828125,-0.044921875,17.4375,-3.1875,-32.125,17.4375,-3.1875,-32.125,-0.003777152636658774,-0.5770833803138573,0.053076562972421804,0.8149499271406347,15.47067347423234,70.08301142770519,-168.5859364918897,0.5814208984375,0.44403076171875,0.37237548828125,-0.57110595703125,15.49146131117196,70.08365850826519,-78.08556881692573,0.28663529806325116,,,,3,0,3,3
1788939927.4389355,894004413.0,-9.1953125,0.8359375,3.375,0.01953125,-0.041015625,-0.033203125,17.4375,-3.1875,-32.125,17.4375,-3.1875,-32.125,-0.003685531950706925,-0.5769409810747325,0.052921161623746056,0.815061268778709,15.398046367690672,70.06741752202556,-168.65341008796076,0.5814208984375,0.44403076171875,0.37237548828125,-0.57110595703125,15.49146131117196,70.08365850826519,-78.08556881692573,0.27415722571076734,,,,3,0,3,3
1788939927.4405868,894008243.0,-9.15625,0.796875,3.3359375,0.01953125,-0.041015625,-0.033203125,17.4375,-3.1875,-32.125,17.4375,-3.1875,-32.125,-0.0035902374590515563,-0.5768240450589014,0.052763481178932176,0.8151546762981579,15.32655482019113,70.05538045245898,-168.71984068394312,0.5814208984375,0.44403076171875,0.37237548828125,-0.57110595703125,15.49146131117196,70.08365850826519,-78.08556881692573,0.2634500039257326,,,,3,0,3,3
1788939927.4460735,894012625.0,-9.19921875,0.796875,3.30078125,0.025390625,-0.0390625,-0.033203125,17.25,-4.75,-35.75,17.25,-4.75,-35.75,-0.0033817150405619258,-0.5766631237449346,0.05288860770680474,0.815261308349019,15.306992544707064,70.03553419501839,-168.76699415947488,0.581298828125,0.44390869140625,0.37225341796875,-0.5714111328125,15.41883333957671,70.06662374535212,-78.1846936793257,0.0,,,,3,0,3,3
1788939927.448136,894016055.0,-9.19921875,0.796875,3.3359375,0.03515625,-0.033203125,-0.02734375,17.25,-4.75,-35.75,17.25,-4.75,-35.75,-0.0032319206816688985,-0.5765327057804744,0.052986216814197476,0.8153478120911781,15.293738259157989,70.0191473399716,-168.800719386156,0.581298828125,0.44390869140625,0.37225341796875,-0.5714111328125,15.41883333957671,70.06662374535212,-78.1846936793257,0.0,,,,3,0,3,3
1788939927.455092,894020514.0,-9.15625,0.796875,3.30078125,0.048828125,-0.029296875,-0.01953125,21.875,-2.875,-36.9375,21.875,-2.875,-36.9375,-0.0031222195124869178,-0.5764610726387734,0.0528382014791617,0.8154084914580655,15.226533454090493,70.01339624110041,-168.8648060328822,0.58123779296875,0.44384765625,0.3720703125,-0.57159423828125,15.393397852101346,70.03882741600633,-78.2207453618706,0.8096481767402635,,,,3,0,3,3
1788939927.4584203,894024621.0,-9.15625,0.796875,3.3359375,0.0625,-0.025390625,-0.013671875,21.875,-2.875,-36.9375,21.875,-2.875,-36.9375,-0.0030162206118638873,-0.5763904746864353,0.052737601030169355,0.8154653079938771,15.173046000645872,70.00705631216792,-168.91877785058014,0.58123779296875,0.44384765625,0.3720703125,-0.57159423828125,15.393397852101346,70.03882741600633,-78.2207453618706,0.8094747983503018,,,,3,0,3,3
1788939927.4608126,894027897.0,-9.15625,0.76171875,3.30078125,0.0625,-0.025390625,-0.013671875,21.875,-2.875,-36.9375,21.875,-2.875,-36.9375,-0.0029253195269545126,-0.5763444901466782,0.052651883599371195,0.8155036789228293,15.128662082273872,70.0035913252684,-168.96361036165638,0.58123779296875,0.44384765625,0.3720703125,-0.57159423828125,15.393397852101346,70.03882741600633,-78.2207453618706,0.8095070954942312,,,,3,0,3,3
1788939927.4668157,894031557.0,-9.2734375,0.8359375,3.26171875,0.078125,-0.013671875,-0.009765625,21.4375,-4.3125,-37.875,21.4375,-4.3125,-37.875,-0.002786958859087585,-0.576327733215979,0.05258122741976382,0.8155205646147007,15.082156581082984,70.00478037113649,-169.01568251306915,0.5810546875,0.44390869140625,0.37188720703125,-0.57183837890625,15.375759208617186,70.02833743271793,-78.27425861494457,0.9127612884676016,,,,3,0,3,3
1788939927.469812,894036263.0,-9.27734375,0.8359375,3.14453125,0.091796875,-0.017578125,-0.009765625,21.4375,-4.3125,-37.875,21.4375,-4.3125,-37.875,-0.0026141144812943996,-0.5764260731966788,0.05263295335397971,0.8154482943545677,15.07277797801717,70.02070229993588,-169.0434493288638,0.5810546875,0.44390869140625,0.37188720703125,-0.57183837890625,15.375759208617186,70.02833743271793,-78.27425861494457,0.919104552007467,,,,3,0,3,3
1788939927.4712098,894039246.0,-9.27734375,0.875,3.109375,0.09375,-0.025390625,-0.0078125,22.125,-4.375,-37.75,22.125,-4.375,-37.75,-0.002523997373373407,-0.5764856455821398,0.05271024272465312,0.8154014717836306,15.082319483284829,70.02946877114537,-169.0476345899268,0.58087158203125,0.44415283203125,0.37158203125,-0.57208251953125,15.421543422760644,70.02923733124805,-78.29704420240799,0.2629533168776379,,,,3,0,3,3
1788939927.4712098,894043952.0,-9.16015625,0.8359375,3.109375,0.083984375,-0.02734375,0.005859375,22.125,-4.375,-37.75,22.125,-4.375,-37.75,-0.0023965477725044902,-0.5765654663883151,0.05277554218548268,0.8153411934118301,15.083435190769443,70.04185069273578,-169.06230872650957,0.58087158203125,0.44415283203125,0.37158203125,-0.57208251953125,15.421543422760644,70.02923733124805,-78.29704420240799,0.2818333917616981,,,,3,0,3,3
1788939927.4712098,894047429.0,-9.15625,0.796875,3.14453125,0.083984375,-0.02734375,0.005859375,22.125,-4.375,-37.75,22.125,-4.375,-37.75,-0.0022726796645833967,-0.5765984521743927,0.052770830270261304,0.8153185263133816,15.061948756765405,70.048691305575,-169.0935612936851,0.58087158203125,0.44415283203125,0.37158203125,-0.57208251953125,15.421543422760644,70.02923733124805,-78.29704420240799,0.2936675317410253,,,,3,0,3,3
1788939927.4712098,894051688.0,-9.23828125,0.8359375,3.14453125,0.06640625,-0.0390625,0.017578125,21.5625,-4.4375,-32.75,21.5625,-4.4375,-32.75,-0.002181787822357036,-0.5766394106746848,0.05298384767018405,0.8152759911494472,15.106670888895877,70.05312418144744,-169.07383057043515,0.58074951171875,0.44427490234375,0.37127685546875,-0.572265625,15.450834009500914,70.00529328204287,-78.30002577468665,0.857582294462639,,,,3,0,3,3
1788939927.4876695,894055994.0,-9.23828125,0.8359375,3.14453125,0.076171875,-0.044921875,0.029296875,21.5625,-4.4375,-32.75,21.5625,-4.4375,-32.75,-0.0020946788423117095,-0.5766710516574319,0.05322324080717543,0.8152382456305891,15.158471106128067,70.05585968968595,-169.04889258486727,0.58074951171875,0.44427490234375,0.37127685546875,-0.572265625,15.450834009500914,70.00529328204287,-78.30002577468665,0.869382247536456,,,,3,0,3,3
1788939927.4857163,894059754.0,-9.27734375,0.8359375,3.18359375,0.076171875,-0.044921875,0.037109375,21.5625,-4.4375,-32.75,21.5625,-4.4375,-32.75,-0.0020118596894126138,-0.5766948452920643,0.05344009329827964,0.8152074363390114,15.204237135804192,70.05774157760713,-169.0277854615174,0.58074951171875,0.4444580078125,0.370849609375,-0.57244873046875,15.528351258095439,69.98454063076521,-78.28029634938024,0.11864869825237298,,,,3,0,3,3
1788939927.4876695,894062754.0,-9.2734375,0.8359375,3.26171875,0.076171875,-0.044921875,0.037109375,21.5625,-4.4375,-32.75,21.5625,-4.4375,-32.75,-0.0018745897749655744,-0.5765943892745987,0.05364375734064325,0.8152654435633871,15.225047392186585,70.04380605222002,-169.03513466140197,0.58074951171875,0.4444580078125,0.370849609375,-0.57244873046875,15.528351258095439,69.98454063076521,-78.28029634938024,0.18751007244481147,,,,3,0,3,3
1788939927.4876695,894067160.0,-9.2734375,0.875,3.26171875,0.072265625,-0.044921875,0.0390625,21.5625,-4.4375,-32.75,21.5625,-4.4375,-32.75,-0.0018152252781855657,-0.5764596116037657,0.054032803541126787,0.815335193210934,15.30775541328679,70.0212581768216,-168.98949334519597,0.58074951171875,0.4444580078125,0.370849609375,-0.57244873046875,15.528351258095439,69.98454063076521,-78.28029634938024,0.25874176783265423,,,,3,0,3,3
1788939927.5052972,894071019.0,-9.3125,0.875,3.30078125,0.06640625,-0.0390625,0.044921875,16.9375,-3.0,-31.125,16.9375,-3.0,-31.125,-0.0018196514675596152,-0.5763816503538544,0.05400146856911229,0.8153923738889657,15.293018784005234,70.0109346274495,-169.00135382133698,0.58074951171875,0.44464111328125,0.37042236328125,-0.57257080078125,15.613033538703533,69.95475607971817,-78.23549028777906,0.4624502072493861,,,,3,0,3,3
1788939927.5052972,894075125.0,-9.3125,0.875,3.30078125,0.0546875,-0.033203125,0.046875,16.9375,-3.0,-31.125,16.9375,-3.0,-31.125,-0.0018423339014574742,-0.5763094297226604,0.05395034253296249,0.8154467533561671,15.27683111445335,70.00132294634211,-169.01152791852905,0.58074951171875,0.44464111328125,0.37042236328125,-0.57257080078125,15.613033538703533,69.95475607971817,-78.23549028777906,0.4574239539501905,,,,3,0,3,3
1788939927.5033007,894078955.0,-9.34765625,0.9140625,3.30078125,0.0546875,-0.033203125,0.046875,16.9375,-3.0,-31.125,16.9375,-3.0,-31.125,-0.0018836853464645129,-0.5762486089306169,0.05390300224033308,0.8154927705286683,15.266185973098379,69.99287415003985,-169.01492624116432,0.58074951171875,0.44464111328125,0.37042236328125,-0.57257080078125,15.613033538703533,69.95475607971817,-78.23549028777906,0.45160937359259445,,,,3,0,3,3
1788939927.5052972,894083138.0,-9.34765625,0.9140625,3.30078125,0.052734375,-0.029296875,0.048828125,18.4375,-3.6875,-32.0,18.4375,-3.6875,-32.0,-0.0019516701631645298,-0.5761598788954866,0.053867753588362065,0.8155576313529632,15.261279862630202,69.97995515789526,-169.01141748235776,0.580810546875,0.44476318359375,0.37005615234375,-0.5726318359375,15.690094679236624,69.9236707910239,-78.18251342909817,0.6813418775750429,,,,3,0,3,3
1788939927.5052972,894086968.0,-9.34375,0.953125,3.26171875,0.048828125,-0.029296875,0.05078125,18.4375,-3.6875,-32.0,18.4375,-3.6875,-32.0,-0.00211590584245381,-0.576172076225565,0.053907256018726576,0.8155459945759768,15.303654934961752,69.97805143168308,-168.95878461729953,0.580810546875,0.44476318359375,0.37005615234375,-0.5726318359375,15.690094679236624,69.9236707910239,-78.18251342909817,0.6759975356316665,,,,3,0,3,3
1788939927.5222285,894091027.0,-9.3125,0.875,3.30078125,0.0546875,-0.02734375,0.033203125,18.375,-3.4375,-30.3125,18.375,-3.4375,-30.3125,-0.002096878263771405,-0.5760990623694011,0.0538457887533585,0.8156016824848834,15.27684574566121,69.96924763534699,-168.98215720081973,0.58087158203125,0.4449462890625,0.36968994140625,-0.57269287109375,15.783290242831127,69.90427614749929,-78.12822454033923,0.07630350786973607,,,,3,0,3,3
1788939927.5222285,894094057.0,-9.27734375,0.875,3.3359375,0.0625,-0.0234375,0.033203125,18.375,-3.4375,-30.3125,18.375,-3.4375,-30.3125,-0.0020795148998404137,-0.5760191012620655,0.05383602366790004,0.8156588460592167,15.263779896950572,69.95876752375993,-168.9959175360128,0.58087158203125,0.4449462890625,0.36968994140625,-0.57269287109375,15.783290242831127,69.90427614749929,-78.12822454033923,0.08043602495222228,,,,3,0,3,3
1788939927.5202754,894098086.0,-9.27734375,0.875,3.375,0.0625,-0.0234375,0.033203125,18.375,-3.4375,-30.3125,18.375,-3.4375,-30.3125,-0.0020570941022448304,-0.575895301916428,0.053848845286953065,0.8157454697733248,15.251987214639557,69.94208477218348,-169.01072185225976,0.58087158203125,0.4449462890625,0.36968994140625,-0.57269287109375,15.783290242831127,69.90427614749929,-78.12822454033923,0.09427144309155107,,,,3,0,3,3
1788939927.5222285,894102269.0,-9.23828125,0.9140625,3.375,0.060546875,-0.013671875,0.033203125,16.8125,-2.25,-31.8125,16.8125,-2.25,-31.8125,-0.002071369527825508,-0.5758372369990846,0.05380373422810339,0.8157893993529524,15.237198890536604,69.93448663342322,-169.0206700932114,0.58087158203125,0.44512939453125,0.369384765625,-0.57275390625,15.860529978711835,69.88919471713915,-78.08458336119492,0.0,,,,3,0,3,3
1788939927.5321825,894106775.0,-9.1953125,0.9140625,3.3359375,0.0546875,0.0,0.0234375,16.8125,-2.25,-31.8125,16.8125,-2.25,-31.8125,-0.0020807245769527993,-0.5758092042714672,0.05372700413558331,0.8158142189788737,15.215619148837751,69.9315072440901,-169.03518084527295,0.58087158203125,0.44512939453125,0.369384765625,-0.57275390625,15.860529978711835,69.88919471713915,-78.08458336119492,0.0,,,,3,0,3,3
1788939927.5391486,894109958.0,-9.1953125,0.98828125,3.3359375,0.056640625,-0.00390625,0.017578125,16.8125,-2.25,-31.8125,16.8125,-2.25,-31.8125,-0.002098140348199413,-0.5757814062937192,0.053677617065385194,0.8158370446355622,15.202974875519299,69.92804534667832,-169.04234702984505,0.58074951171875,0.4453125,0.369140625,-0.57281494140625,15.913201681573454,69.87093217596748,-78.04906133152292,1.0230485436900538,,,,3,0,3,3
1788939927.5391486,894114264.0,-9.16015625,0.98828125,3.375,0.056640625,0.009765625,0.005859375,16.8125,-2.25,-31.8125,16.8125,-2.25,-31.8125,-0.002099532593753006,-0.5757511788163767,0.05360946392079686,0.8158628545488299,15.182058523626955,69.92479608305635,-169.05755802138955,0.58074951171875,0.4453125,0.369140625,-0.57281494140625,15.913201681573454,69.87093217596748,-78.04906133152292,1.0225296841900147,,,,3,0,3,3
1788939927.5479393,894118418.0,-9.16015625,0.98828125,3.375,0.056640625,0.009765625,0.005859375,16.8125,-2.25,-31.8125,16.8125,-2.25,-31.8125,-0.002101399278625903,-0.5757220221269858,0.053543873507537726,0.8158877318411493,15.162026331993575,69.9216489807022,-169.07205610037275,0.58074951171875,0.4453125,0.369140625,-0.57281494140625,15.913201681573454,69.87093217596748,-78.04906133152292,1.022092980806833,,,,3,0,3,3
1788939927.556967,894122377.0,-9.1953125,0.953125,3.3359375,0.05859375,0.015625,0.0,20.75,-3.875,-38.25,20.75,-3.875,-38.25,-0.0021033844930691786,-0.575675798407552,0.05351643254642847,0.8159221423328364,15.150843838251431,69.91565742937631,-169.08085470176363,0.58062744140625,0.44549560546875,0.3690185546875,-0.5728759765625,15.951702664231199,69.87630653363753,-78.03919281908335,1.0104762875896391,,,,3,0,3,3
1788939927.5599654,894125907.0,-9.16015625,0.953125,3.375,0.048828125,0.021484375,-0.0078125,20.75,-3.875,-38.25,20.75,-3.875,-38.25,-0.0020929201251140405,-0.5756285239955883,0.0534938611166056,0.8159570018517198,15.13858638344189,69.90968554051402,-169.09215426499512,0.58062744140625,0.44549560546875,0.3690185546875,-0.5728759765625,15.951702664231199,69.87630653363753,-78.03919281908335,1.0109924115478743,,,,3,0,3,3
1788939927.5646455,894129289.0,-9.12109375,0.98828125,3.3359375,0.044921875,0.03125,-0.005859375,20.75,-3.875,-38.25,20.75,-3.875,-38.25,-0.0021177061076935342,-0.5755984073493456,0.05348376875901565,0.8159788448587808,15.137770207719315,69.90524727155484,-169.09012737206132,0.58050537109375,0.44573974609375,0.368896484375,-0.57293701171875,16.006570812275907,69.89335304373726,-78.02777708889306,0.5330518145073083,,,,3,0,3,3
1788939927.5646455,894133643.0,-9.078125,0.98828125,3.26171875,0.044921875,0.03125,-0.005859375,20.75,-3.875,-38.25,20.75,-3.875,-38.25,-0.002192497671924461,-0.5755906247135814,0.05344874971091683,0.8159864317806562,15.141448770343104,69.90327725877638,-169.07741915674774,0.58050537109375,0.44573974609375,0.368896484375,-0.57293701171875,16.006570812275907,69.89335304373726,-78.02777708889306,0.5301984618105735,,,,3,0,3,3
1788939927.5704417,894137472.0,-9.16015625,0.953125,3.30078125,0.044921875,0.033203125,-0.0078125,20.75,-3.875,-38.25,20.75,-3.875,-38.25,-0.0022123843323990124,-0.575586410532724,0.05338111514690315,0.8159937781081994,15.12643854486877,69.90323605473438,-169.08522258881462,0.58050537109375,0.44573974609375,0.368896484375,-0.57293701171875,16.006570812275907,69.89335304373726,-78.02777708889306,0.5295238426703827,,,,3,0,3,3
1788939927.5778558,894141532.0,-9.15625,0.953125,3.22265625,0.04296875,0.03125,-0.013671875,20.8125,-5.3125,-38.0625,20.8125,-5.3125,-38.0625,-0.0021676335035161593,-0.5756399494216898,0.053635557438580825,0.8159394444277354,15.19183608649801,69.90798827404429,-169.04443146728127,0.580322265625,0.4459228515625,0.368896484375,-0.572998046875,16.022272821069517,69.91489044906061,-78.04111921579657,0.07638514615287262,,,,3,0,3,3
1788939927.581791,894145638.0,-9.19921875,0.98828125,3.26171875,0.037109375,0.03515625,-0.01171875,20.8125,-5.3125,-38.0625,20.8125,-5.3125,-38.0625,-0.0021450410824548002,-0.5756826308543884,0.05388480405170197,0.8158929679949657,15.258988149498936,69.91090619842362,-168.99964523397895,0.580322265625,0.4459228515625,0.368896484375,-0.572998046875,16.022272821069517,69.91489044906061,-78.04111921579657,0.08402253106792565,,,,3,0,3,3
1788939927.5857928,894149797.0,-9.19921875,0.953125,3.26171875,0.02734375,0.03125,-0.009765625,20.8125,-5.3125,-38.0625,20.8125,-5.3125,-38.0625,-0.0021217573568543327,-0.5757163657809854,0.054125042730776646,0.8158533226426459,15.322787566544577,69.91272266988193,-168.9575340517374,0.58013916015625,0.44610595703125,0.368896484375,-0.572998046875,16.04521374384984,69.9273645581409,-78.02918588000446,0.8077011685919558,,,,3,0,3,3
1788939927.586792,894153574.0,-9.19921875,0.98828125,3.26171875,0.02734375,0.03125,-0.009765625,20.8125,-5.3125,-38.0625,20.8125,-5.3125,-38.0625,-0.002114061952605622,-0.57574684232102,0.054341247524209,0.8158174631110489,15.382681758538642,69.91411663407888,-168.916068154271,0.58013916015625,0.44610595703125,0.368896484375,-0.572998046875,16.04521374384984,69.9273645581409,-78.02918588000446,0.8093115101703939,,,,3,0,3,3
1788939927.5899975,894156804.0,-9.234375,1.02734375,3.22265625,0.021484375,0.033203125,-0.013671875,20.8125,-5.3125,-38.0625,20.8125,-5.3125,-38.0625,-0.0021158572439074785,-0.575800703754542,0.05451002951085034,0.8157681836077106,15.43361372525469,69.91915940396493,-168.87885350045246,0.58013916015625,0.44610595703125,0.368896484375,-0.572998046875,16.04521374384984,69.9273645581409,-78.02918588000446,0.8105139487932844,,,,3,0,3,3
1788939927.5915995,894160863.0,-9.19921875,0.98828125,3.22265625,0.009765625,0.03125,-0.017578125,17.625,-4.0,-31.1875,17.625,-4.0,-31.1875,-0.0021633189945092566,-0.5758690544094637,0.05468408859294647,0.8157081602382295,15.495775860710955,69.92524421448472,-168.8270756417109,0.5799560546875,0.44622802734375,0.36895751953125,-0.57305908203125,16.03747181997466,69.9490888871971,-78.05695312548124,0.7094586496819664,,,,3,0,3,3
1788939927.5915995,894164769.0,-9.2734375,0.98828125,3.22265625,0.00390625,0.037109375,-0.017578125,17.625,-4.0,-31.1875,17.625,-4.0,-31.1875,-0.0022069069436108472,-0.5759747043262399,0.0548262784748312,0.8156239015175089,15.552028121579362,69.93691582866441,-168.77886482636507,0.5799560546875,0.44622802734375,0.36895751953125,-0.57305908203125,16.03747181997466,69.9490888871971,-78.05695312548124,0.709598492762131,,,,3,0,3,3
1788939927.6009424,894168999.0,-9.3125,1.02734375,3.14453125,0.00390625,0.037109375,-0.017578125,17.625,-4.0,-31.1875,17.625,-4.0,-31.1875,-0.002236500777019644,-0.5761300294024535,0.05493203323376822,0.8155069950710457,15.600426625621239,69.9561230227409,-168.7366092265837,0.5799560546875,0.44622802734375,0.36895751953125,-0.57305908203125,16.03747181997466,69.9490888871971,-78.05695312548124,0.7093868490661296,,,,3,0,3,3
1788939927.6041162,894172982.0,-9.34375,1.06640625,3.18359375,0.00390625,0.03125,-0.015625,16.75,-3.25,-32.5625,16.75,-3.25,-32.5625,-0.0023386196463574794,-0.5762713903317593,0.0548465348144484,0.8154125784914643,15.60916950595432,69.97467428470642,-168.71229377928302,0.579833984375,0.44635009765625,0.36907958984375,-0.57305908203125,16.03862105531453,69.98109737062481,-78.07471058533984,0.0,,,,3,0,3,3
1788939927.6021485,894176611.0,-9.34765625,1.14453125,3.18359375,0.001953125,0.025390625,-0.01953125,16.75,-3.25,-32.5625,16.75,-3.25,-32.5625,-0.0024575787327008607,-0.576378619079726,0.05482890069272411,0.8153376229656938,15.636361066645057,69.9873112389446,-168.67377119276549,0.579833984375,0.44635009765625,0.36907958984375,-0.57305908203125,16.03862105531453,69.98109737062481,-78.07471058533984,0.0,,,,3,0,3,3
1788939927.602163,894180971.0,-9.34765625,1.14453125,3.18359375,0.009765625,0.025390625,-0.029296875,18.1875,-0.8125,-31.0625,18.1875,-0.8125,-31.0625,-0.002459716123316788,-0.5764670772592029,0.05460513553882554,0.8152900942643737,15.584118577710726,70.00243732573253,-168.70731334758747,0.57965087890625,0.4464111328125,0.36920166015625,-0.57305908203125,16.0145624020119,69.99387308810061,-78.09165404498548,0.7869975246449543,,,,3,0,3,3
1788939927.6194174,894184877.0,-9.34765625,1.06640625,3.22265625,0.00390625,0.025390625,-0.03125,18.1875,-0.8125,-31.0625,18.1875,-0.8125,-31.0625,-0.002450711394732887,-0.576537153222315,0.05438778335524665,0.8152550974938282,15.529796559881426,70.01516753412719,-168.74439721409544,0.57965087890625,0.4464111328125,0.36920166015625,-0.57305908203125,16.0145624020119,69.99387308810061,-78.09165404498548,0.7835353723196327,,,,3,0,3,3
1788939927.6078086,894188807.0,-9.34375,1.02734375,3.22265625,0.00390625,0.025390625,-0.03125,18.1875,-0.8125,-31.0625,18.1875,-0.8125,-31.0625,-0.002435340859121111,-0.5766067349999442,0.05416765189690528,0.8152205884026603,15.473432824864188,70.02797970796522,-168.7838183711568,0.57965087890625,0.4464111328125,0.36920166015625,-0.57305908203125,16.0145624020119,69.99387308810061,-78.09165404498548,0.7810037539144783,,,,3,0,3,3
1788939927.6187212,894192113.0,-9.31640625,0.953125,3.26171875,0.00390625,0.025390625,-0.046875,16.875,-4.0625,-31.625,16.875,-4.0625,-31.625,-0.0024056923394586358,-0.57663930808429,0.05428880331029045,0.8151895772466524,15.503863597314881,70.03133039493054,-168.76578125337147,0.5794677734375,0.4464111328125,0.36932373046875,-0.5731201171875,15.966756579139842,70.0040511108342,-78.13559862962475,1.1385739656817697,,,,3,0,3,3
1788939927.6209037,894196619.0,-9.31640625,0.9140625,3.26171875,0.005859375,0.03125,-0.048828125,16.875,-4.0625,-31.625,16.875,-4.0625,-31.625,-0.0023063380858801908,-0.576694544259991,0.05445965984189574,0.8151393922975997,15.536922917970578,70.03840706544582,-168.75492223768532,0.5794677734375,0.4464111328125,0.36932373046875,-0.5731201171875,15.966756579139842,70.0040511108342,-78.13559862962475,1.140525164825088,,,,3,0,3,3
1788939927.6209037,894200002.0,-9.23828125,0.98828125,3.30078125,0.015625,0.029296875,-0.05859375,16.875,-4.0625,-31.625,16.875,-4.0625,-31.625,-0.0022627839104217315,-0.5766760040014135,0.054555395968202254,0.8151462292059561,15.55315773562212,70.0353813303267,-168.75017540657126,0.57928466796875,0.44647216796875,0.3695068359375,-0.5732421875,15.920883496836876,70.04696451307413,-78.2164476363789,0.0,,,,3,0,3,3
1788939927.6343777,894204108.0,-9.234375,0.98828125,3.26171875,0.01953125,0.029296875,-0.056640625,16.875,-4.0625,-31.625,16.875,-4.0625,-31.625,-0.0022176400069173563,-0.5766862617578573,0.054705404175669374,0.8151290427450887,15.586519306794122,70.03557617289569,-168.73287985523487,0.57928466796875,0.44647216796875,0.3695068359375,-0.5732421875,15.920883496836876,70.04696451307413,-78.2164476363789,0.0,,,,3,0,3,3
1788939927.6363451,894208461.0,-9.234375,0.953125,3.26171875,0.01953125,0.029296875,-0.056640625,16.875,-4.0625,-31.625,16.875,-4.0625,-31.625,-0.0021499938418376714,-0.5766829143428265,0.054862498442631115,0.8151210340165297,15.616361838725194,70.03423905052468,-168.72154972286015,0.57928466796875,0.44647216796875,0.3695068359375,-0.5732421875,15.920883496836876,70.04696451307413,-78.2164476363789,0.0,,,,3,0,3,3
1788939927.6383128,894212221.0,-9.19921875,0.953125,3.26171875,0.0234375,0.03515625,-0.064453125,17.1875,-4.8125,-36.0625,17.1875,-4.8125,-36.0625,-0.002040999054515093,-0.5766987243892433,0.05500755467978802,0.8151003524344896,15.636994037391009,70.03646876695778,-168.72181947447598,0.5789794921875,0.44647216796875,0.36968994140625,-0.57342529296875,15.83351395149489,70.07216518036955,-78.31971752775958,0.0,,,,3,0,3,3
1788939927.6383128,894215950.0,-9.16015625,0.875,3.3359375,0.01953125,0.033203125,-0.072265625,17.1875,-4.8125,-36.0625,17.1875,-4.8125,-36.0625,-0.0018815340868046657,-0.5766539562411006,0.05504749662598552,0.8151297121907526,15.614019097490287,70.03282297042776,-168.7612368230693,0.5789794921875,0.44647216796875,0.36968994140625,-0.57342529296875,15.83351395149489,70.07216518036955,-78.31971752775958,0.0,,,,3,0,3,3
1788939927.6518433,894219910.0,-9.16015625,0.875,3.375,0.015625,0.044921875,-0.07421875,17.1875,-4.8125,-36.0625,17.1875,-4.8125,-36.0625,-0.0017218222147386657,-0.57662080647625,0.05506142761088811,0.8151525747100299,15.58500023834111,70.03112149031732,-168.80456396186221,0.57867431640625,0.446533203125,0.369873046875,-0.57354736328125,15.769644928230884,70.09996980924132,-78.3962883357902,0.456958913263785,,,,3,0,3,3
1788939927.6541176,894223486.0,-9.12109375,0.8359375,3.30078125,0.015625,0.044921875,-0.07421875,17.1875,-4.8125,-36.0625,17.1875,-4.8125,-36.0625,-0.001543424228495907,-0.5765964127049417,0.05507869519797432,0.8151690205305475,15.554218256362915,70.03091820265855,-168.85145747451548,0.57867431640625,0.446533203125,0.369873046875,-0.57354736328125,15.769644928230884,70.09996980924132,-78.3962883357902,0.460642236829535,,,,3,0,3,3
1788939927.6521645,894228093.0,-9.1171875,0.8359375,3.26171875,0.013671875,0.046875,-0.068359375,17.1875,-4.8125,-36.0625,17.1875,-4.8125,-36.0625,-0.0013053731582624243,-0.5765844438189704,0.05514176877167738,0.8151736382413363,15.525927249200453,70.03290974713852,-168.90452824035955,0.57867431640625,0.446533203125,0.369873046875,-0.57354736328125,15.769644928230884,70.09996980924132,-78.3962883357902,0.468356056496252,,,,3,0,3,3
1788939927.6541176,894231375.0,-9.15625,0.875,3.26171875,0.017578125,0.0546875,-0.064453125,21.0625,-5.3125,-38.3125,21.0625,-5.3125,-38.3125,-0.0011774961085254786,-0.5765991830517216,0.055237050639125394,0.8151569565695261,15.529380589992465,70.03604274691584,-168.9194275113832,0.57830810546875,0.44659423828125,0.3701171875,-0.57366943359375,15.689475100233913,70.13206445148943,-78.48385097278756,0.9333089878728403,,,,3,0,3,3
1788939927.669623,894235482.0,-9.15625,0.8359375,3.26171875,0.025390625,0.0546875,-0.056640625,21.0625,-5.3125,-38.3125,21.0625,-5.3125,-38.3125,-0.0009692278568603125,-0.5766062044814264,0.05533802326304697,0.8151454156972383,15.518688758368613,70.03955879585551,-168.955556920621,0.57830810546875,0.44659423828125,0.3701171875,-0.57366943359375,15.689475100233913,70.13206445148943,-78.48385097278756,0.9379585906107898,,,,3,0,3,3
1788939927.6691778,894239341.0,-9.19921875,0.8359375,3.26171875,0.03125,0.060546875,-0.0625,19.375,-4.375,-38.8125,19.375,-4.375,-38.8125,-0.0008158762926307829,-0.5766745368965022,0.055144164618364834,0.8151103814512625,15.443471288255513,70.05438161296857,-169.02733741210292,0.5780029296875,0.44671630859375,0.370361328125,-0.57379150390625,15.63430127722858,70.18362338259263,-78.57262670848237,0.0,,,,3,0,3,3
1788939927.6711454,894243018.0,-9.19921875,0.8359375,3.22265625,0.03125,0.060546875,-0.0625,19.375,-4.375,-38.8125,19.375,-4.375,-38.8125,-0.0006684988395708146,-0.5767752471554548,0.054944350606081646,0.8150527502650006,15.370569313394952,70.07357493821439,-169.0957905200526,0.5780029296875,0.44671630859375,0.370361328125,-0.57379150390625,15.63430127722858,70.18362338259263,-78.57262670848237,0.0,,,,3,0,3,3
1788939927.6711454,894247524.0,-9.23828125,0.8359375,3.18359375,0.02734375,0.0625,-0.05859375,19.375,-4.375,-38.8125,19.375,-4.375,-38.8125,-0.0005016139199905827,-0.5769685205035783,0.05471703111613014,0.8149313598317489,15.294705931547535,70.10613841062545,-169.1664555976429,0.5780029296875,0.44671630859375,0.370361328125,-0.57379150390625,15.63430127722858,70.18362338259263,-78.57262670848237,0.0,,,,3,0,3,3
1788939927.6861956,894251683.0,-9.234375,0.875,3.22265625,0.0390625,0.05859375,-0.0546875,21.625,-2.0625,-32.125,21.625,-2.0625,-32.125,-0.00037218091907167885,-0.5770874423601621,0.054511341806636894,0.8148610059181934,15.224891276938958,70.12752397687917,-169.22984647838,0.57763671875,0.44683837890625,0.37054443359375,-0.5738525390625,15.584662355040866,70.2064368246414,-78.62064134174156,1.121965350939227,,,,3,0,3,3
1788939927.6901307,894255589.0,-9.27734375,0.8359375,3.18359375,0.037109375,0.06640625,-0.048828125,21.625,-2.0625,-32.125,21.625,-2.0625,-32.125,-0.0002554723598323816,-0.5772239711115582,0.05432189645989118,0.8147769961609602,15.163354531888084,70.15085466042389,-169.2852365521361,0.57763671875,0.44683837890625,0.37054443359375,-0.5738525390625,15.584662355040866,70.2064368246414,-78.62064134174156,1.1178227758338468,,,,3,0,3,3
1788939927.6891673,894258443.0,-9.23828125,0.875,3.18359375,0.037109375,0.06640625,-0.048828125,21.625,-2.0625,-32.125,21.625,-2.0625,-32.125,-0.0001771029991383029,-0.5773210462238663,0.054183270898988736,0.8147174672094585,15.119313544838505,70.16740111221179,-169.32420489017386,0.57763671875,0.44683837890625,0.37054443359375,-0.5738525390625,15.584662355040866,70.2064368246414,-78.62064134174156,1.1153041491241578,,,,3,0,3,3
1788939927.6911204,894262625.0,-9.23828125,0.875,3.14453125,0.029296875,0.05859375,-0.037109375,18.1875,-4.0625,-31.4375,18.1875,-4.0625,-31.4375,-8.581182667369023e-05,-0.5775317431372291,0.05427504030027392,0.8145620285193802,15.146113176488571,70.19674804264876,-169.3122751409039,0.57733154296875,0.447021484375,0.3707275390625,-0.57391357421875,15.560209185221986,70.24877664633978,-78.6696926957933,1.0106189767485272,,,,3,0,3,3
1788939927.6911204,894266732.0,-9.27734375,0.9140625,3.109375,0.029296875,0.05859375,-0.037109375,18.1875,-4.0625,-31.4375,18.1875,-4.0625,-31.4375,-2.0770726629340478e-05,-0.577736821869556,0.0543689876970876,0.8144103249599896,15.1780258435621,70.22481802206033,-169.29325864604124,0.57733154296875,0.447021484375,0.3707275390625,-0.57391357421875,15.560209185221986,70.24877664633978,-78.6696926957933,1.0101304419735926,,,,3,0,3,3
1788939927.7051806,894270114.0,-9.27734375,0.9140625,3.109375,0.0234375,0.048828125,-0.037109375,18.1875,-4.0625,-31.4375,18.1875,-4.0625,-31.4375,2.7070445700450434e-05,-0.5778919248446293,0.054438886808589944,0.8142956036167712,15.202150345555975,70.24603949508847,-169.27868105729812,0.57708740234375,0.44720458984375,0.37091064453125,-0.57391357421875,15.55197684484025,70.2895911872212,-78.69558836380601,0.8890940966909567,,,,3,0,3,3
1788939927.7096367,894274621.0,-9.2734375,0.953125,3.0703125,0.01953125,0.048828125,-0.0390625,18.1875,-4.0625,-31.4375,18.1875,-4.0625,-31.4375,7.333489994383725e-05,-0.578094307890675,0.054530508103706535,0.8141458035833294,15.236869111178944,70.27342772673617,-169.2551248498435,0.57708740234375,0.44720458984375,0.37091064453125,-0.57391357421875,15.55197684484025,70.2895911872212,-78.69558836380601,0.888997030427906,,,,3,0,3,3
1788939927.7117286,894278174.0,-9.3125,0.9140625,3.109375,0.01953125,0.048828125,-0.0390625,18.1875,-4.0625,-31.4375,18.1875,-4.0625,-31.4375,0.0001247744240219161,-0.5782600062514107,0.05458918167117286,0.8140241832070675,15.258285106561837,70.29631818692617,-169.24261566985368,0.57708740234375,0.44720458984375,0.37091064453125,-0.57391357421875,15.55197684484025,70.2895911872212,-78.69558836380601,0.8895037617246805,,,,3,0,3,3
1788939927.7166514,894282533.0,-9.31640625,0.953125,3.0703125,0.017578125,0.044921875,-0.041015625,18.1875,-5.0625,-31.875,18.1875,-5.0625,-31.875,0.00020603455208882852,-0.5783995074525398,0.054753771258040006,0.813913995371406,15.300901885827244,70.31477998882718,-169.22010705411395,0.57684326171875,0.44732666015625,0.37109375,-0.573974609375,15.519741581797115,70.32782642158814,-78.74883632712621,0.6000926499777884,,,,3,0,3,3
1788939927.7119792,894286839.0,-9.31640625,0.9140625,3.0703125,0.0,0.029296875,-0.041015625,18.1875,-5.0625,-31.875,18.1875,-5.0625,-31.875,0.00027871030743856223,-0.5785142910303778,0.054881074414058754,0.8138238169686007,15.33267063307087,70.33018561049816,-169.20469136826398,0.57684326171875,0.44732666015625,0.37109375,-0.573974609375,15.519741581797115,70.32782642158814,-78.74883632712621,0.6051637149064881,,,,3,0,3,3
1788939927.7210069,894293952.0,-9.3125,0.875,3.03125,-0.001953125,0.01953125,-0.0390625,17.9375,-3.0625,-31.0,17.9375,-3.0625,-31.0,0.00036262056318204437,-0.5787458823494008,0.0545396350538735,0.813682063448698,15.243534273747512,70.36798082194123,-169.27237466802606,0.57672119140625,0.44732666015625,0.37127685546875,-0.573974609375,15.47970189792031,70.34836326912576,-78.78415984914267,0.6476843614822526,,,,3,0,3,3
1788939927.7210069,894294605.0,-9.3125,0.875,3.03125,-0.001953125,0.01953125,-0.0390625,17.9375,-3.0625,-31.0,17.9375,-3.0625,-31.0,0.00036987640006835935,-0.5787672592874104,0.054508557824822175,0.8136689375244986,15.235506870357883,70.3714536775033,-169.2784179823719,0.57672119140625,0.44732666015625,0.37127685546875,-0.573974609375,15.47970189792031,70.34836326912576,-78.78415984914267,0.6466414456650749,,,,3,0,3,3
1788939927.7316215,894299488.0,-9.34765625,0.875,2.953125,0.0,0.015625,-0.041015625,17.9375,-3.0625,-31.0,17.9375,-3.0625,-31.0,0.00043627004492101574,-0.5789368562965569,0.05431888088547448,0.8135609290454265,15.185791633253855,70.39842115913328,-169.31780423729157,0.57659912109375,0.447265625,0.37139892578125,-0.57403564453125,15.423013522540556,70.354269191022,-78.83348025281029,0.9323103689196558,,,,3,0,3,3
1788939927.737546,894303894.0,-9.38671875,0.875,2.9921875,-0.001953125,0.001953125,-0.04296875,17.75,-5.1875,-32.625,17.75,-5.1875,-32.625,0.0005282598652792401,-0.5790283803538367,0.054413382003368226,0.8134894219012826,15.202694413045908,70.4114402458842,-169.31615952407378,0.57659912109375,0.447265625,0.37139892578125,-0.57403564453125,15.423013522540556,70.354269191022,-78.83348025281029,0.9355067123909646,,,,3,0,3,3
1788939927.737546,894306447.0,-9.38671875,0.875,3.03125,-0.001953125,0.001953125,-0.04296875,17.75,-5.1875,-32.625,17.75,-5.1875,-32.625,0.0005825592630626218,-0.5790763265513449,0.05447520286659941,0.8134511177232153,15.213798180284787,70.41821347206351,-169.31456519304788,0.57659912109375,0.447265625,0.37139892578125,-0.57403564453125,15.423013522540556,70.354269191022,-78.83348025281029,0.9377234100543038,,,,3,0,3,3
1788939927.7355928,894313530.0,-9.34375,0.875,3.0703125,0.001953125,-0.001953125,-0.044921875,17.75,-5.1875,-32.625,17.75,-5.1875,-32.625,0.000749143972725496,-0.579172663046963,0.054683501302854105,0.8133684158163864,15.248433565909332,70.43179080500504,-169.31068599910515,0.57647705078125,0.44720458984375,0.37152099609375,-0.57415771484375,15.358814327046604,70.36947221548047,-78.9086399877666,0.6563833862490431,,,,3,0,3,3
1788939927.751471,894317513.0,-9.27734375,0.875,2.9921875,-0.013671875,-0.013671875,-0.048828125,17.4375,-7.875,-37.4375,17.4375,-7.875,-37.4375,0.0008463200057868814,-0.5791878925368793,0.05478750876485117,0.813350476587109,15.260064737537855,70.43432241768537,-169.3155927314231,0.57647705078125,0.44720458984375,0.37152099609375,-0.57415771484375,15.358814327046604,70.36947221548047,-78.9086399877666,0.6626193817724433,,,,3,0,3,3
1788939927.7542365,894321672.0,-9.27734375,0.875,3.03125,-0.00390625,-0.021484375,-0.044921875,21.9375,-5.6875,-37.1875,21.9375,-5.6875,-37.1875,0.0009293670725609598,-0.5792296596083761,0.05487861303931239,0.8133144997709624,15.273244369630074,70.44040284391906,-169.31670198673186,0.576416015625,0.447021484375,0.37158203125,-0.57427978515625,15.278010246090371,70.35649514528839,-78.97572024993228,1.045583917576451,,,,3,0,3,3
1788939927.7542365,894325202.0,-9.234375,0.875,3.0703125,0.001953125,-0.029296875,-0.0546875,21.9375,-5.6875,-37.1875,21.9375,-5.6875,-37.1875,0.0010205092338413854,-0.5792374884469057,0.05497459984975585,0.8133023324139577,15.283135776827717,70.44191552191174,-169.3221988592259,0.576416015625,0.447021484375,0.37158203125,-0.57427978515625,15.278010246090371,70.35649514528839,-78.97572024993228,1.0497168687247365,,,,3,0,3,3
1788939927.7522833,894329761.0,-9.1953125,0.875,3.109375,-0.001953125,-0.029296875,-0.046875,21.9375,-5.6875,-37.1875,21.9375,-5.6875,-37.1875,0.0011180105221219507,-0.5792148146788433,0.05512501343894799,0.8133081712379272,15.30411683775821,70.4386534458211,-169.32164139998756,0.5762939453125,0.4468994140625,0.37164306640625,-0.57452392578125,15.189818837863875,70.36632119059992,-79.09054637654738,0.3481797716089571,,,,3,0,3,3
1788939927.7693982,894334068.0,-9.1953125,0.8359375,3.03125,0.015625,-0.0390625,-0.04296875,21.5,-4.75,-37.5,21.5,-4.75,-37.5,0.0012374888961694853,-0.5792795182275675,0.05507421787810108,0.8132653557777957,15.27307669517622,70.4504115659022,-169.3582515592722,0.5762939453125,0.4468994140625,0.37164306640625,-0.57452392578125,15.189818837863875,70.36632119059992,-79.09054637654738,0.3481277181352006,,,,3,0,3,3
1788939927.7713206,894337421.0,-9.23828125,0.796875,3.0703125,0.015625,-0.0390625,-0.04296875,21.5,-4.75,-37.5,21.5,-4.75,-37.5,0.001361386576917748,-0.5793220993617247,0.05499068815376823,0.8132404786003259,15.230055443860886,70.45963505712186,-169.404530377892,0.5762939453125,0.4468994140625,0.37164306640625,-0.57452392578125,15.189818837863875,70.36632119059992,-79.09054637654738,0.3450140579998636,,,,3,0,3,3
1788939927.7713206,894345033.0,-9.234375,0.72265625,3.14453125,0.017578125,-0.044921875,-0.02734375,20.25,-5.625,-37.4375,20.25,-5.625,-37.4375,0.001759530937473262,-0.5792265076860597,0.05523729219508116,0.8132910908129061,15.213569511146805,70.45069674980643,-169.47413504894143,0.57623291015625,0.44671630859375,0.37158203125,-0.57470703125,15.11666987801477,70.33862831326061,-79.15645466161327,1.0281806625755905,,,,3,0,3,3
1788939927.7693675,894349263.0,-9.234375,0.72265625,3.14453125,0.017578125,-0.044921875,-0.02734375,20.25,-5.625,-37.4375,20.25,-5.625,-37.4375,0.0019829151760522613,-0.5791760889468635,0.05537033275595851,0.8133174363617897,15.20315855713618,70.44619620744268,-169.51390862021387,0.57623291015625,0.44671630859375,0.37158203125,-0.57470703125,15.11666987801477,70.33862831326061,-79.15645466161327,1.0368234682208557,,,,3,0,3,3
1788939927.7874992,894353246.0,-9.234375,0.72265625,3.109375,0.01953125,-0.056640625,-0.005859375,21.875,-3.9375,-32.625,21.875,-3.9375,-32.625,0.0020854991040113497,-0.5791302184443701,0.055215330856873954,0.8133603801614813,15.136390018890161,70.4437721775529,-169.57638075319767,0.57623291015625,0.44659423828125,0.3714599609375,-0.57489013671875,15.076536279520669,70.31863864325243,-79.2096456426006,0.9608480723834308,,,,3,0,3,3
1788939927.7908726,894356575.0,-9.19921875,0.796875,3.109375,0.037109375,-0.056640625,0.001953125,21.875,-3.9375,-32.625,21.875,-3.9375,-32.625,0.0021551242476176864,-0.579096761712994,0.055113668103398225,0.8133909143832315,15.091857563153136,70.44175082705216,-169.61829108198856,0.57623291015625,0.44659423828125,0.3714599609375,-0.57489013671875,15.076536279520669,70.31863864325243,-79.2096456426006,0.9576153807712277,,,,3,0,3,3
1788939927.7905302,894364064.0,-9.1953125,0.8359375,3.109375,0.048828125,-0.072265625,0.01171875,16.875,-4.5625,-32.0625,16.875,-4.5625,-32.0625,0.002307031982105737,-0.5789457865521126,0.05561595551582233,0.8134637787443589,15.188524668061705,70.41743218727191,-169.57563444594237,0.5762939453125,0.446533203125,0.3712158203125,-0.5750732421875,15.076844070870145,70.29437619050042,-79.23673056691636,0.6007049793214875,,,,3,0,3,3
1788939927.7924833,894364641.0,-9.1953125,0.8359375,3.109375,0.048828125,-0.072265625,0.01171875,16.875,-4.5625,-32.0625,16.875,-4.5625,-32.0625,0.0023195950266662077,-0.5789351004431406,0.055653648805884644,0.8134687703460989,15.195608476125429,70.41571703195342,-169.57269892622912,0.5762939453125,0.446533203125,0.3712158203125,-0.5750732421875,15.076844070870145,70.29437619050042,-79.23673056691636,0.6036512969106026,,,,3,0,3,3
1788939927.8012786,894368294.0,-9.19921875,0.8359375,3.0703125,0.048828125,-0.072265625,0.01171875,16.875,-4.5625,-32.0625,16.875,-4.5625,-32.0625,0.002392552561739333,-0.5788914801517866,0.05586581878595298,0.813485058370028,15.236529264066554,70.40837273331448,-169.55529660649205,0.5762939453125,0.446533203125,0.3712158203125,-0.5750732421875,15.076844070870145,70.29437619050042,-79.23673056691636,0.6210827647039213,,,,3,0,3,3
1788939927.8068595,894372277.0,-9.23828125,0.8359375,3.109375,0.046875,-0.076171875,0.017578125,17.5,-4.5625,-31.9375,17.5,-4.5625,-31.9375,0.0024690468636538536,-0.5788287526609209,0.05610964262997608,0.813512683923566,15.283797547778354,70.39806765638318,-169.53446527130959,0.57635498046875,0.44647216796875,0.370849609375,-0.5753173828125,15.084783130329631,70.2554980476946,-79.26268526273238,0.25773235821272017,,,,3,0,3,3
1788939927.8110795,894376483.0,-9.23828125,0.8359375,3.109375,0.04296875,-0.080078125,0.03125,17.5,-4.5625,-31.9375,17.5,-4.5625,-31.9375,0.002525367236885197,-0.578757940657024,0.05637106325151254,0.8135448186023025,15.339018973266457,70.38605198747081,-169.50548231036385,0.57635498046875,0.44647216796875,0.370849609375,-0.5753173828125,15.084783130329631,70.2554980476946,-79.26268526273238,0.303632100668894,,,,3,0,3,3
1788939927.8110795,894380466.0,-9.234375,0.8359375,3.0703125,0.03515625,-0.095703125,0.0390625,17.5,-4.5625,-31.9375,17.5,-4.5625,-31.9375,0.002551270302536034,-0.5786858892026008,0.05658130255059197,0.8135813965789267,15.3857191459475,70.37395283781403,-169.47830643273343,0.5765380859375,0.4464111328125,0.37042236328125,-0.575439453125,15.132826505717416,70.20162181525579,-79.22863728093814,0.598842612423387,,,,3,0,3,3
1788939927.8206456,894384649.0,-9.27734375,0.8359375,3.109375,0.04296875,-0.103515625,0.041015625,17.75,-2.3125,-32.0,17.75,-2.3125,-32.0,0.0025335835409328266,-0.578541543839065,0.056498400288696085,0.8136898633825855,15.353097461544689,70.35489214712489,-169.50278893341485,0.5765380859375,0.4464111328125,0.37042236328125,-0.575439453125,15.132826505717416,70.20162181525579,-79.22863728093814,0.5860893266025596,,,,3,0,3,3
1788939927.8205426,894389332.0,-9.3125,0.8359375,3.109375,0.041015625,-0.10546875,0.04296875,17.75,-2.3125,-32.0,17.75,-2.3125,-32.0,0.0025083813972393175,-0.5783810858664244,0.05640592637285402,0.813810419572496,15.317866648104756,70.33360299254444,-169.5284901646645,0.5767822265625,0.4462890625,0.36993408203125,-0.57562255859375,15.173384381547075,70.14090796831486,-79.21079589882874,0.19075248831507627,,,,3,0,3,3
1788939927.8244777,894392385.0,-9.3125,0.8359375,3.109375,0.041015625,-0.10546875,0.04296875,17.75,-3.6875,-32.125,17.75,-3.6875,-32.125,0.0025089052416680936,-0.578312482072626,0.05637642327523987,0.813861215055846,15.303448428707018,70.32458207647923,-169.54058924683636,0.5767822265625,0.4462890625,0.36993408203125,-0.57562255859375,15.173384381547075,70.14090796831486,-79.21079589882874,0.1745962367494602,,,,3,0,3,3
1788939927.8244777,894395714.0,-9.34765625,0.8359375,3.109375,0.046875,-0.115234375,0.052734375,17.75,-3.6875,-32.125,17.75,-3.6875,-32.125,0.0025035803133683626,-0.5782277301036677,0.056368517328697874,0.8139219953281388,15.294661532261426,70.31296204480708,-169.54837233032939,0.5767822265625,0.4462890625,0.36993408203125,-0.57562255859375,15.173384381547075,70.14090796831486,-79.21079589882874,0.16043913258101872,,,,3,0,3,3
1788939927.8386927,894403704.0,-9.34375,0.875,3.22265625,0.044921875,-0.12109375,0.052734375,18.4375,-4.1875,-32.0625,18.4375,-4.1875,-32.0625,0.002676370185792607,-0.5779287567749284,0.05633257036891185,0.8141362482108543,15.225250711862653,70.27562193847461,-169.62932197756356,0.5770263671875,0.4461669921875,0.369384765625,-0.5758056640625,15.22119895045202,70.06843441103273,-79.18007191195834,0.558075048240645,,,,3,0,3,3
1788939927.8406458,894407680.0,-9.34375,0.9140625,3.22265625,0.044921875,-0.12109375,0.052734375,18.4375,-4.1875,-32.0625,18.4375,-4.1875,-32.0625,0.0025498741465482433,-0.5777568771555173,0.05661874099259033,0.8142387900424267,15.31262055695087,70.24607469022739,-169.5553147109013,0.5770263671875,0.4461669921875,0.369384765625,-0.5758056640625,15.22119895045202,70.06843441103273,-79.18007191195834,0.5667729272865307,,,,3,0,3,3
1788939927.8466468,894411916.0,-9.31640625,0.953125,3.22265625,0.04296875,-0.126953125,0.0546875,17.3125,-7.125,-36.0,17.3125,-7.125,-36.0,0.002544115666807285,-0.5775285454657476,0.05696840621213233,0.8143763916895805,15.389368969961621,70.21020625379913,-169.5071447214474,0.57733154296875,0.446044921875,0.3687744140625,-0.57598876953125,15.284976436070494,69.99184556528138,-79.13889486371673,0.5392781941467452,,,,3,0,3,3
1788939927.8516471,894415346.0,-9.31640625,0.9140625,3.22265625,0.041015625,-0.123046875,0.0546875,17.3125,-7.125,-36.0,17.3125,-7.125,-36.0,0.002544723732413366,-0.577350580876524,0.05724764469289157,0.8144829883550562,15.449923072513196,70.18225466251221,-169.4698392918001,0.57733154296875,0.446044921875,0.3687744140625,-0.57598876953125,15.284976436070494,69.99184556528138,-79.13889486371673,0.554383667762896,,,,3,0,3,3
1788939927.8569815,894423282.0,-9.19921875,0.9140625,3.26171875,0.03125,-0.123046875,0.05859375,22.1875,-3.25,-39.0,22.1875,-3.25,-39.0,0.0023987222230297633,-0.5769107175829224,0.05710657502225787,0.8148049516042973,15.399267984715154,70.12109516720932,-169.4973170245442,0.57763671875,0.4459228515625,0.3681640625,-0.576171875,15.348401005235354,69.91539762438913,-79.09828513192132,0.45022473992610407,,,,3,0,2,3
1788939927.8598902,894426811.0,-9.1953125,0.953125,3.30078125,0.025390625,-0.119140625,0.052734375,22.1875,-3.25,-39.0,22.1875,-3.25,-39.0,0.002325114751532396,-0.5767100725536043,0.05703781977479949,0.8149520066678443,15.376354851488864,70.09312888899015,-169.5087174656508,0.57763671875,0.4459228515625,0.3681640625,-0.576171875,15.348401005235354,69.91539762438913,-79.09828513192132,0.4293378021435972,,,,3,0,2,3
1788939927.865888,894431647.0,-9.1953125,0.98828125,3.3359375,0.033203125,-0.130859375,0.044921875,21.4375,-3.875,-37.8125,21.4375,-3.875,-37.8125,0.0022225687090335956,-0.5763628455421423,0.057008965106402174,0.8151999192617694,15.356775211511088,70.04405148739764,-169.5178444326943,0.57794189453125,0.44573974609375,0.36761474609375,-0.57635498046875,15.388055540785203,69.83912111883743,-79.07257975533574,0.4675256550155926,,,,3,0,2,3
1788939927.8698888,894434777.0,-9.16015625,0.953125,3.30078125,0.03125,-0.123046875,0.044921875,21.4375,-3.875,-37.8125,21.4375,-3.875,-37.8125,0.002162713192583698,-0.5761611474456751,0.05696712084013599,0.8153455721281099,15.338658845861445,70.01586482483407,-169.52779696753348,0.57794189453125,0.44573974609375,0.36761474609375,-0.57635498046875,15.388055540785203,69.83912111883743,-79.07257975533574,0.4515125360326812,,,,3,0,2,3
1788939927.8709433,894439107.0,-9.16015625,0.953125,3.3359375,0.03125,-0.123046875,0.044921875,21.4375,-3.875,-37.8125,21.4375,-3.875,-37.8125,0.002085473894119189,-0.575868922955408,0.056923217304717645,0.8155552597491449,15.315273814835441,69.97499748244094,-169.5415114796477,0.57794189453125,0.44573974609375,0.36761474609375,-0.57635498046875,15.388055540785203,69.83912111883743,-79.07257975533574,0.43272103676811846,,,,3,0,2,3
1788939927.8748116,894443089.0,-9.1953125,0.953125,3.375,0.01953125,-0.123046875,0.03515625,20.8125,-4.3125,-37.9375,20.8125,-4.3125,-37.9375,0.002016243172695358,-0.5755702324079588,0.05691004240521863,0.8157671784294543,15.298262928775696,69.93301132682467,-169.55205008268695,0.57818603515625,0.445556640625,0.3670654296875,-0.5765380859375,15.418829198786149,69.75556622306813,-79.04505605636632,1.0669761050508466,,,,3,0,2,3
1788939927.8748116,894447196.0,-9.16015625,0.9140625,3.375,0.025390625,-0.111328125,0.037109375,20.8125,-4.3125,-37.9375,20.8125,-4.3125,-37.9375,0.0019684801053308047,-0.5752861336184876,0.056889010368728524,0.8159691354773374,15.276493026975112,69.89352814667212,-169.56844979787522,0.57818603515625,0.445556640625,0.3670654296875,-0.5765380859375,15.418829198786149,69.75556622306813,-79.04505605636632,1.0613284589154073,,,,3,0,2,3
1788939927.8748116,894450779.0,-9.16015625,0.98828125,3.4140625,0.01171875,-0.107421875,0.033203125,20.8125,-4.3125,-37.9375,20.8125,-4.3125,-37.9375,0.0018915784382401903,-0.5750325186989595,0.056894188539599565,0.8161477045732367,15.269939304292933,69.8573504146876,-169.56936724106413,0.5784912109375,0.44537353515625,0.36663818359375,-0.57672119140625,15.443596247301251,69.70292507897442,-79.04573631348835,0.0,,,,3,0,2,3
1788939927.8891184,894455085.0,-9.16015625,1.02734375,3.375,0.013671875,-0.099609375,0.029296875,20.8125,-4.3125,-37.9375,20.8125,-4.3125,-37.9375,0.0017700136407969168,-0.5747475302330629,0.056920250268927976,0.8163468801018525,15.274542796279341,69.81579972413351,-169.55720884344996,0.5784912109375,0.44537353515625,0.36663818359375,-0.57672119140625,15.443596247301251,69.70292507897442,-79.04573631348835,0.0,,,,3,0,2,3
