pc_unix,dev_us,ax,ay,az,gx,gy,gz,mx_raw,my_raw,mz_raw,mx,my,mz,host_qw,host_qx,host_qy,host_qz,host_roll,host_pitch,host_yaw,chip_qw,chip_qx,chip_qy,chip_qz,chip_roll,chip_pitch,chip_yaw,diff_deg,rel_roll,rel_pitch,rel_yaw,cal_acc,cal_gyr,cal_mag,cal_rv
1788937738.8422139,3000340426.0,-9.6171875,0.8359375,-2.140625,0.0078125,-0.017578125,0.056640625,36.0625,-6.6875,-24.0,36.0625,-6.6875,-24.0,0.00046435926674106946,-0.7725512302724945,0.06902978543220943,0.6311887750095921,156.95928890945953,77.24302299589372,-28.7091013019371,0.445556640625,0.59552001953125,0.49517822265625,-0.44903564453125,156.7072938446005,77.44276825960323,60.72009172370022,0.8491601828733532,,,,3,0,3,3
1788937738.844167,3000344503.0,-9.58203125,0.875,-2.1015625,0.0078125,-0.017578125,0.056640625,36.0625,-6.6875,-24.0,36.0625,-6.6875,-24.0,0.0003766657171219661,-0.7725683019126142,0.06927820215028464,0.6311407194197041,156.8661068296893,77.22626633103603,-28.815496751492617,0.445556640625,0.59552001953125,0.49517822265625,-0.44903564453125,156.7072938446005,77.44276825960323,60.72009172370022,0.8388560750852934,,,,3,0,3,3
1788937738.8467693,3000347732.0,-9.58203125,0.875,-2.1015625,0.013671875,-0.0234375,0.0625,36.0625,-6.6875,-24.0,36.0625,-6.6875,-24.0,0.00031114435280634595,-0.7725761681722267,0.06948670979687832,0.6311082036569603,156.7887821524195,77.21350719433238,-28.904565172785222,0.445556640625,0.59552001953125,0.49517822265625,-0.44903564453125,156.7072938446005,77.44276825960323,60.72009172370022,0.8305809556702669,,,,3,0,3,3
1788937738.8478322,3000351792.0,-9.62109375,0.8359375,-2.0625,0.001953125,-0.02734375,0.0625,32.6875,-5.0625,-18.25,32.6875,-5.0625,-18.25,0.0002924412834933483,-0.7726194413192121,0.06950249209776946,0.631053497705134,156.7930714872305,77.20509524058899,-28.90008427906675,0.44573974609375,0.59564208984375,0.494873046875,-0.448974609375,156.51451050117691,77.42859792406308,60.510573281947146,1.165816312700551,,,,3,0,3,3
1788937738.8478322,3000355698.0,-9.62109375,0.875,-2.0625,0.013671875,-0.03125,0.064453125,32.6875,-5.0625,-18.25,32.6875,-5.0625,-18.25,0.00022010366120874808,-0.7726628295364587,0.0695831283665522,0.6309915147241012,156.76033903310025,77.191896248021,-28.93356784257393,0.44573974609375,0.59564208984375,0.494873046875,-0.448974609375,156.51451050117691,77.42859792406308,60.510573281947146,1.165322651958745,,,,3,0,3,3
1788937738.8598104,3000359728.0,-9.62109375,0.875,-2.0625,0.013671875,-0.03125,0.064453125,32.6875,-5.0625,-18.25,32.6875,-5.0625,-18.25,0.00015048845084349326,-0.7727077178861835,0.06965635951764511,0.6309284837848904,156.73118954167973,77.17886977096902,-28.963085282809956,0.44573974609375,0.59564208984375,0.494873046875,-0.448974609375,156.51451050117691,77.42859792406308,60.510573281947146,1.1653127622658086,,,,3,0,3,3
1788937738.8650854,3000363710.0,-9.62109375,0.8359375,-2.0625,0.015625,-0.033203125,0.064453125,33.0625,-4.0625,-17.75,33.0625,-4.0625,-17.75,0.00014737485391398212,-0.7726885901520512,0.06958577925613595,0.6309596978054972,156.74211165025483,77.18497660704217,-28.946112804868612,0.44598388671875,0.59576416015625,0.49462890625,-0.448974609375,156.34474808818962,77.46378485501143,60.34919336450961,0.0,,,,3,0,3,3
1788937738.8690784,3000367140.0,-9.66015625,0.8359375,-2.1015625,0.01171875,-0.04296875,0.06640625,33.0625,-4.0625,-17.75,33.0625,-4.0625,-17.75,0.00013839286356572271,-0.7726710230095871,0.06952832910555616,0.6309875454401004,156.74793639958241,77.1900405678768,-28.93483643054661,0.44598388671875,0.59576416015625,0.49462890625,-0.448974609375,156.34474808818962,77.46378485501143,60.34919336450961,0.0,,,,3,0,3,3
1788937738.8731627,3000371600.0,-9.6953125,0.8359375,-2.1015625,0.015625,-0.0390625,0.0625,32.375,-3.625,-18.1875,32.375,-3.625,-18.1875,0.00013285187469764607,-0.7726444910051109,0.06944547978643008,0.6310291579689997,156.75864511780853,77.19780266999535,-28.916868557416535,0.44622802734375,0.5958251953125,0.49432373046875,-0.44891357421875,156.1321193888747,77.45091925470071,60.12471393521906,0.8430368261617419,,,,3,0,3,3
1788937738.8748095,3000375706.0,-9.66015625,0.8359375,-2.1015625,0.009765625,-0.044921875,0.07421875,32.375,-3.625,-18.1875,32.375,-3.625,-18.1875,0.00010279530042329015,-0.7726134647203727,0.06938106405471786,0.6310742361375108,156.75382635281224,77.20460777009835,-28.913937128186298,0.44622802734375,0.5958251953125,0.49432373046875,-0.44891357421875,156.1321193888747,77.45091925470071,60.12471393521906,0.8444443244629914,,,,3,0,3,3
1788937738.8748095,3000379859.0,-9.65625,0.8359375,-2.140625,0.009765625,-0.044921875,0.07421875,32.375,-3.625,-18.1875,32.375,-3.625,-18.1875,7.09150804444894e-05,-0.7725931670407021,0.06932273216416293,0.6311054999113578,156.75052765934407,77.20933199792853,-28.909845088133743,0.44622802734375,0.5958251953125,0.49432373046875,-0.44891357421875,156.1321193888747,77.45091925470071,60.12471393521906,0.8463562942412309,,,,3,0,3,3
1788937738.8824155,3000382842.0,-9.6953125,0.8359375,-2.1015625,0.015625,-0.046875,0.072265625,32.5625,-5.25,-19.3125,32.5625,-5.25,-19.3125,5.796300717295964e-05,-0.7726081334953003,0.06940704777824971,0.6310779115259112,156.72849993475035,77.20272774506924,-28.93773525629071,0.44647216796875,0.59588623046875,0.49395751953125,-0.44891357421875,155.9075916167588,77.44278985776931,59.88086545271115,1.3028724940224383,,,,3,0,3,3
1788937738.8879647,3000387348.0,-9.73046875,0.8359375,-2.0625,0.017578125,-0.052734375,0.07421875,32.5625,-5.25,-19.3125,32.5625,-5.25,-19.3125,0.00010302547383613873,-0.7726090491810578,0.06949216407984396,0.6310674176669189,156.72257133911867,77.20045508933694,-28.95430381043662,0.44647216796875,0.59588623046875,0.49395751953125,-0.44891357421875,155.9075916167588,77.44278985776931,59.88086545271115,1.2997183913589307,,,,3,0,3,3
1788937738.8879647,3000390731.0,-9.6953125,0.8359375,-2.0625,0.017578125,-0.05859375,0.07421875,32.5625,-5.25,-19.3125,32.5625,-5.25,-19.3125,0.00012343156246433446,-0.7726076376613772,0.06956320611684409,0.6310613150452983,156.71053767110044,77.19829375878587,-28.973815052986044,0.44677734375,0.59600830078125,0.49359130859375,-0.448974609375,155.68227727270323,77.48412898069265,59.65521404216905,0.5340215180664712,,,,3,0,3,3
1788937738.8879647,3000394837.0,-9.6953125,0.8359375,-2.1015625,0.01171875,-0.06640625,0.072265625,32.5625,-5.25,-19.3125,32.5625,-5.25,-19.3125,0.00010679308564245436,-0.7726027814856119,0.06966325017185,0.6310562274563393,156.67593417134353,77.19408371823651,-29.015251037713583,0.44677734375,0.59600830078125,0.49359130859375,-0.448974609375,155.68227727270323,77.48412898069265,59.65521404216905,0.5235340213515215,,,,3,0,3,3
1788937738.8988595,3000399390.0,-9.7265625,0.796875,-2.0625,0.01171875,-0.06640625,0.072265625,32.5625,-5.25,-19.3125,32.5625,-5.25,-19.3125,0.00018589895585598303,-0.7725589841635112,0.06968720966210752,0.6311071812611005,156.6829174934364,77.20300052891675,-29.016631960871656,0.44677734375,0.59600830078125,0.49359130859375,-0.448974609375,155.68227727270323,77.48412898069265,59.65521404216905,0.5159968346618055,,,,3,0,3,3
1788937738.8988595,3000403150.0,-9.69921875,0.796875,-2.0625,0.013671875,-0.064453125,0.076171875,33.0,-6.4375,-20.6875,33.0,-6.4375,-20.6875,0.00014655547921450592,-0.7724885495132628,0.06998510343673223,0.6311604429060305,156.56364529689873,77.19989376044262,-29.157029019867245,0.44708251953125,0.59600830078125,0.49322509765625,-0.44903564453125,155.45107044683186,77.49644652357217,59.41293730633599,0.8558823945703332,,,,3,0,3,3
1788937738.8988595,3000406679.0,-9.6953125,0.8359375,-2.1015625,0.021484375,-0.07421875,0.076171875,33.0,-6.4375,-20.6875,33.0,-6.4375,-20.6875,0.00010081397529587565,-0.7724246320896029,0.07026169589724099,0.6312079464545954,156.4501415666375,77.19636542453503,-29.28939895632358,0.44708251953125,0.59600830078125,0.49322509765625,-0.44903564453125,155.45107044683186,77.49644652357217,59.41293730633599,0.8343155529860119,,,,3,0,3,3
1788937738.8988595,3000411039.0,-9.66015625,0.8359375,-2.0625,0.025390625,-0.08203125,0.07421875,33.0,-6.4375,-20.6875,33.0,-6.4375,-20.6875,5.635663746003467e-05,-0.7723222041177978,0.07061889800754188,0.6312934191758667,156.30184080393437,77.19546345835822,-29.46323721706132,0.4473876953125,0.5960693359375,0.4927978515625,-0.4490966796875,155.19553059710378,77.50871286158474,59.14091521174421,0.9955124785616257,,,,3,0,3,3
1788937738.9142742,3000414415.0,-9.66015625,0.8359375,-2.02734375,0.025390625,-0.08203125,0.07421875,33.0,-6.4375,-20.6875,33.0,-6.4375,-20.6875,2.6133776159014984e-05,-0.772229173114959,0.07090500308689125,0.631375153173183,156.18107470764784,77.19663240001302,-29.60488707471163,0.4473876953125,0.5960693359375,0.4927978515625,-0.4490966796875,155.19553059710378,77.50871286158474,59.14091521174421,0.9753563626711347,,,,3,0,3,3
1788937738.9156246,3000418921.0,-9.6953125,0.875,-2.02734375,0.03515625,-0.080078125,0.076171875,33.0,-6.4375,-20.6875,33.0,-6.4375,-20.6875,-2.4811869400233653e-05,-0.772101794911265,0.07130655374877398,0.6314857029827731,156.00964018557033,77.19730981860619,-29.804941636630605,0.4473876953125,0.5960693359375,0.4927978515625,-0.4490966796875,155.19553059710378,77.50871286158474,59.14091521174421,0.9488279556557057,,,,3,0,3,3
1788937738.9194427,3000422104.0,-9.62109375,0.875,-1.98828125,0.033203125,-0.083984375,0.078125,35.5,-7.875,-25.875,35.5,-7.875,-25.875,-5.6530435078573886e-05,-0.7719993420671313,0.07159345337387057,0.6315784908356443,155.8846739150608,77.1997181266043,-29.950727701836094,0.44769287109375,0.59613037109375,0.4923095703125,-0.44927978515625,154.94147340556503,77.54497950083488,58.865842408648646,0.7440856088881104,,,,3,0,2,3
1788937738.9194427,3000426210.0,-9.62109375,0.875,-1.98828125,0.029296875,-0.083984375,0.0703125,35.5,-7.875,-25.875,35.5,-7.875,-25.875,-9.142294045153199e-05,-0.7718691269512564,0.07194591787545368,0.6316975759035407,155.73099387642745,77.20341507187456,-30.130314025311634,0.44769287109375,0.59613037109375,0.4923095703125,-0.44927978515625,154.94147340556503,77.54497950083488,58.865842408648646,0.7128731376967599,,,,3,0,2,3
1788937738.933163,3000430370.0,-9.58203125,0.9140625,-1.98828125,0.01953125,-0.0859375,0.068359375,35.5,-7.875,-25.875,35.5,-7.875,-25.875,-0.00015659082708806748,-0.7717380856638829,0.07228550061948964,0.6318188894100489,155.56933138436915,77.20657244765496,-30.314362520652633,0.44793701171875,0.59619140625,0.4918212890625,-0.44940185546875,154.68941800444176,77.54586824820532,58.579983066181825,1.255335019797635,,,,3,0,2,3
1788937738.933163,3000434346.0,-9.6171875,0.953125,-1.94921875,0.01953125,-0.0859375,0.068359375,35.5,-7.875,-25.875,35.5,-7.875,-25.875,-0.00023110587956365135,-0.7715971027701564,0.07260978405672076,0.6319538565797422,155.40452451320888,77.21154303290228,-30.49953276474183,0.44793701171875,0.59619140625,0.4918212890625,-0.44940185546875,154.68941800444176,77.54586824820532,58.579983066181825,1.237984482659916,,,,3,0,2,3
1788937738.933163,3000438553.0,-9.6171875,0.953125,-1.94921875,0.0234375,-0.083984375,0.0703125,35.5,-7.875,-25.875,35.5,-7.875,-25.875,-0.00030478909408957676,-0.771450993289547,0.07296160831146327,0.6320916672198614,155.2307904525096,77.21595571060251,-30.69594990270695,0.44793701171875,0.59619140625,0.4918212890625,-0.44940185546875,154.68941800444176,77.54586824820532,58.579983066181825,1.2211249558552923,,,,3,0,2,3
1788937738.933163,3000441635.0,-9.62109375,0.98828125,-1.91015625,0.017578125,-0.0859375,0.064453125,36.875,-5.6875,-20.75,36.875,-5.6875,-20.75,-0.00038221611723681634,-0.7713090177384769,0.07298812381616808,0.6322618024583971,155.1421987474571,77.23452196899093,-30.780277450101604,0.4482421875,0.59619140625,0.49139404296875,-0.4495849609375,154.45668109619672,77.58191810310767,58.331963853374944,1.1373850816079214,,,,3,0,2,3
1788937738.946409,3000445542.0,-9.62109375,0.98828125,-1.87109375,0.021484375,-0.078125,0.056640625,36.875,-5.6875,-20.75,36.875,-5.6875,-20.75,-0.0004504251966756555,-0.7711321439650921,0.0730315135650157,0.632472459232294,155.0390489513842,77.25820011207259,-30.881264086135214,0.4482421875,0.59619140625,0.49139404296875,-0.4495849609375,154.45668109619672,77.58191810310767,58.331963853374944,1.12463097074308,,,,3,0,2,3
1788937738.9478364,3000449771.0,-9.66015625,0.98828125,-1.87109375,0.021484375,-0.078125,0.056640625,36.875,-5.6875,-20.75,36.875,-5.6875,-20.75,-0.0005180031057163641,-0.7709410427871223,0.0730743032527573,0.632700392305245,154.93049835733746,77.28415142268653,-30.987641320845825,0.4482421875,0.59619140625,0.49139404296875,-0.4495849609375,154.45668109619672,77.58191810310767,58.331963853374944,1.111903377032999,,,,3,0,2,3
1788937738.9497895,3000453754.0,-9.66015625,1.02734375,-1.87109375,0.01171875,-0.080078125,0.0546875,32.5,-4.5,-17.5625,32.5,-4.5,-17.5625,-0.0005888251055127057,-0.770782904951243,0.0730388898891218,0.6328970589943385,154.8535226098902,77.30831875739743,-31.05580530365621,0.44854736328125,0.59619140625,0.49102783203125,-0.44970703125,154.23555683284835,77.61311707925945,58.10316217035315,0.9786097577222214,,,,3,0,3,3
1788937738.9497895,3000457384.0,-9.62109375,1.02734375,-1.87109375,0.017578125,-0.076171875,0.041015625,32.5,-4.5,-17.5625,32.5,-4.5,-17.5625,-0.0006339115633437141,-0.7706483988188058,0.07298922981019969,0.6330665177418995,154.79850178208568,77.33034942747375,-31.102965186423862,0.44854736328125,0.59619140625,0.49102783203125,-0.44970703125,154.23555683284835,77.61311707925945,58.10316217035315,0.9711921035541355,,,,3,0,3,3
1788937738.9642153,3000461743.0,-9.66015625,1.02734375,-1.87109375,0.009765625,-0.080078125,0.0390625,32.875,-6.6875,-19.4375,32.875,-6.6875,-19.4375,-0.0007291833107794428,-0.7704873198556946,0.07326517028501807,0.6332305844290806,154.6292183959401,77.33938210742024,-31.28694562277229,0.4488525390625,0.59613037109375,0.49066162109375,-0.44989013671875,154.0241633023155,77.649056778713,57.88212898399266,0.9353358782714634,,,,3,0,3,3
1788937738.9703293,3000465650.0,-9.62109375,1.02734375,-1.83203125,0.00390625,-0.0703125,0.03125,32.875,-6.6875,-19.4375,32.875,-6.6875,-19.4375,-0.0008135719627822967,-0.7703479321188222,0.07348727913026608,0.633374313804204,154.48621926257346,77.34779907336565,-31.441139153053395,0.4488525390625,0.59613037109375,0.49066162109375,-0.44989013671875,154.0241633023155,77.649056778713,57.88212898399266,0.9180330080133258,,,,3,0,3,3
1788937738.9683328,3000469679.0,-9.58203125,1.02734375,-1.83203125,0.00390625,-0.0703125,0.03125,32.875,-6.6875,-19.4375,32.875,-6.6875,-19.4375,-0.000901723748195031,-0.7702067568312343,0.07371839465064935,0.6335190106981202,154.33862960769056,77.35582875809108,-31.600353387270328,0.4488525390625,0.59613037109375,0.49066162109375,-0.44989013671875,154.0241633023155,77.649056778713,57.88212898399266,0.9014255790151657,,,,3,0,3,3
1788937738.9703293,3000473662.0,-9.62109375,0.98828125,-1.83203125,0.01171875,-0.06640625,0.02734375,33.0625,-5.5,-17.9375,33.0625,-5.5,-17.9375,-0.0009578644515543281,-0.7700304734537347,0.07380660527629028,0.633722918526622,154.22604272178455,77.37736955909867,-31.715434520805477,0.4490966796875,0.5960693359375,0.49041748046875,-0.45001220703125,153.86958928970066,77.67879862323662,57.72606518424893,0.7744208078401438,,,,3,0,3,3
1788937738.9703293,3000477192.0,-9.62109375,1.02734375,-1.87109375,0.00390625,-0.06640625,0.01953125,33.0625,-5.5,-17.9375,33.0625,-5.5,-17.9375,-0.0010583896414994253,-0.7698878852072447,0.07390469483902931,0.6338845479290633,154.10767706018854,77.39130031260247,-31.83352144586636,0.4490966796875,0.5960693359375,0.49041748046875,-0.45001220703125,153.86958928970066,77.67879862323662,57.72606518424893,0.7602362911011229,,,,3,0,3,3
1788937738.9839444,3000481551.0,-9.62109375,0.98828125,-1.83203125,0.001953125,-0.06640625,0.01171875,33.0625,-5.5,-17.9375,33.0625,-5.5,-17.9375,-0.0011130016412462833,-0.7696973015782037,0.0739552738239988,0.6341099610037646,153.99914375324013,77.41683791635514,-31.941579284101596,0.4493408203125,0.595947265625,0.49017333984375,-0.4501953125,153.72476755935372,77.71333058795047,57.57783583924136,0.7727217764317743,,,,3,0,3,3
1788937738.9867,3000484881.0,-9.66015625,0.953125,-1.87109375,0.0,-0.064453125,0.013671875,33.0625,-5.5,-17.9375,33.0625,-5.5,-17.9375,-0.0011284274249900343,-0.7695531330566665,0.07396432942183374,0.6342838323868845,153.93384081902167,77.43854500288205,-32.00623816196105,0.4493408203125,0.595947265625,0.49017333984375,-0.4501953125,153.72476755935372,77.71333058795047,57.57783583924136,0.7620272338866676,,,,3,0,3,3
1788937738.9886675,3000489334.0,-9.65625,0.98828125,-1.94921875,0.0,-0.064453125,0.013671875,33.0625,-5.5,-17.9375,33.0625,-5.5,-17.9375,-0.0013005278030858774,-0.7694977589693821,0.07410059297836802,0.6343347772972774,153.81348113941436,77.43389478172111,-32.12369912317183,0.4493408203125,0.595947265625,0.49017333984375,-0.4501953125,153.72476755935372,77.71333058795047,57.57783583924136,0.7539775484507454,,,,3,0,3,3
1788937738.9945543,3000492893.0,-9.62109375,0.9140625,-1.91015625,0.001953125,-0.068359375,0.0078125,32.0625,-4.5,-17.9375,32.0625,-4.5,-17.9375,-0.0012533753191279879,-0.7694244753532686,0.0739447283462214,0.6344419460655641,153.8421289422178,77.45480143585743,-32.08605833035486,0.44952392578125,0.5958251953125,0.489990234375,-0.4503173828125,153.60993064776372,77.72691872996889,57.457572265781316,1.1197689318599804,,,,3,0,3,3
1788937738.9995537,3000496523.0,-9.65625,0.9140625,-1.94921875,-0.001953125,-0.06640625,-0.001953125,32.0625,-4.5,-17.9375,32.0625,-4.5,-17.9375,-0.0011984169245124296,-0.7693680485354578,0.07376586361188256,0.6345312971439703,153.88652929733794,77.47445378684911,-32.03143248870657,0.44952392578125,0.5958251953125,0.489990234375,-0.4503173828125,153.60993064776372,77.72691872996889,57.457572265781316,1.1215015391610952,,,,3,0,3,3
1788937739.003632,3000500682.0,-9.65625,0.9140625,-1.94921875,0.0,-0.06640625,0.0078125,32.375,-6.875,-20.875,32.375,-6.875,-20.875,-0.001205861458590777,-0.769282142732671,0.07397877243807365,0.6346106459864417,153.7935334284878,77.47747954273757,-32.14118198083064,0.44976806640625,0.59564208984375,0.4898681640625,-0.45050048828125,153.51492076874266,77.77625152835152,57.37498645308107,0.803980495484338,,,,3,0,3,3
1788937739.0056868,3000505389.0,-9.66015625,0.875,-1.91015625,0.0,-0.068359375,0.00390625,32.375,-6.875,-20.875,32.375,-6.875,-20.875,-0.0011775877402655118,-0.7691636276344371,0.07421788186447914,0.6347264239204926,153.69353781331353,77.48575398372517,-32.26295540949872,0.44976806640625,0.59564208984375,0.4898681640625,-0.45050048828125,153.51492076874266,77.77625152835152,57.37498645308107,0.788312511550429,,,,3,0,3,3
1788937739.0076616,3000509065.0,-9.66015625,0.875,-1.91015625,0.0,-0.068359375,0.00390625,32.375,-6.875,-20.875,32.375,-6.875,-20.875,-0.0011531038563236888,-0.7690724518956756,0.07440409154277217,0.6348151425796057,153.61693164555817,77.49208153186754,-32.35672317126741,0.44976806640625,0.59564208984375,0.4898681640625,-0.45050048828125,153.51492076874266,77.77625152835152,57.37498645308107,0.7769720109226856,,,,3,0,3,3
1788937739.0145586,3000512925.0,-9.65625,0.875,-1.796875,0.0,-0.06640625,0.005859375,35.4375,-5.125,-23.5625,35.4375,-5.125,-23.5625,-0.0011080796628666844,-0.7689647001505749,0.0742504758359306,0.6349637225227399,153.6300876395737,77.51823080911363,-32.33455433231102,0.449951171875,0.59552001953125,0.48968505859375,-0.45068359375,153.4135315379128,77.809504668054,57.27080547530892,0.7473436602508029,,,,3,0,3,3
1788937739.0155528,3000516054.0,-9.66015625,0.875,-1.7578125,-0.001953125,-0.060546875,0.0078125,35.4375,-5.125,-23.5625,35.4375,-5.125,-23.5625,-0.0010792462562572954,-0.7688756649152788,0.07413465257030355,0.6350851127344166,153.6350422577216,77.53896039825916,-32.322381570116434,0.449951171875,0.59552001953125,0.48968505859375,-0.45068359375,153.4135315379128,77.809504668054,57.27080547530892,0.7446701433034778,,,,3,0,3,3
1788937739.0155528,3000520214.0,-9.65625,0.8359375,-1.796875,0.0,-0.056640625,0.015625,35.4375,-5.125,-23.5625,35.4375,-5.125,-23.5625,-0.0010335563498060998,-0.7687751113354758,0.07398287927952817,0.6352246008506829,153.65102658477085,77.56390213394849,-32.29759737276128,0.45013427734375,0.59539794921875,0.489501953125,-0.45086669921875,153.311636465151,77.84278657178287,57.166139174484464,0.7132868531087377,,,,3,0,3,3
1788937739.0155528,3000524190.0,-9.66015625,0.8359375,-1.71875,0.0,-0.056640625,0.015625,35.4375,-5.125,-23.5625,35.4375,-5.125,-23.5625,-0.0009971597924347921,-0.7686614898104058,0.07385750864202933,0.6353767293283477,153.65140668265818,77.58924449662557,-32.289812266472595,0.45013427734375,0.59539794921875,0.489501953125,-0.45086669921875,153.311636465151,77.84278657178287,57.166139174484464,0.7097704001717173,,,,3,0,3,3
1788937739.0155528,3000528396.0,-9.62109375,0.8359375,-1.7578125,0.00390625,-0.046875,0.015625,35.4375,-5.125,-23.5625,35.4375,-5.125,-23.5625,-0.0009503555971282298,-0.7685649267237988,0.07371671255120044,0.635509949981056,153.66667489509106,77.61306063199045,-32.266738779170794,0.45013427734375,0.59539794921875,0.489501953125,-0.45086669921875,153.311636465151,77.84278657178287,57.166139174484464,0.7090975500981497,,,,3,0,3,3
1788937739.0312457,3000532656.0,-9.578125,0.8359375,-1.6796875,0.009765625,-0.041015625,0.02734375,35.875,-3.0,-24.625,35.875,-3.0,-24.625,-0.0009318483506926048,-0.7684908705383241,0.07358135021660271,0.6356152125761322,153.67931548858766,77.63194273558311,-32.24445530545438,0.45025634765625,0.5953369140625,0.4893798828125,-0.45098876953125,153.2449088904964,77.86999325257604,57.099037509838126,0.3941198314188334,,,,3,0,3,3
1788937739.0380986,3000536362.0,-9.578125,0.8359375,-1.640625,0.013671875,-0.0390625,0.02734375,35.875,-3.0,-24.625,35.875,-3.0,-24.625,-0.0009113382255787945,-0.7684243966684919,0.0734717686297445,0.6357082784435956,153.68897934932963,77.64846968181533,-32.22742970120955,0.45025634765625,0.5953369140625,0.4893798828125,-0.45098876953125,153.2449088904964,77.86999325257604,57.099037509838126,0.395508125463966,,,,3,0,3,3
1788937739.0361454,3000540592.0,-9.6171875,0.8359375,-1.6796875,0.013671875,-0.0390625,0.02734375,35.875,-3.0,-24.625,35.875,-3.0,-24.625,-0.0008868837864074368,-0.7683530259786315,0.07334290327108743,0.6358094521524493,153.70329413759816,77.66684550656443,-32.20449140587561,0.45025634765625,0.5953369140625,0.4893798828125,-0.45098876953125,153.2449088904964,77.86999325257604,57.099037509838126,0.3989855622470943,,,,3,0,3,3
1788937739.0470872,3000544628.0,-9.62109375,0.875,-1.71875,0.017578125,-0.033203125,0.03125,35.9375,-4.125,-20.0625,35.9375,-4.125,-20.0625,-0.0008507041930067746,-0.7682802913392884,0.07324291491907467,0.635908913018328,153.71373434514734,77.68451219280401,-32.1887455325162,0.45037841796875,0.5953369140625,0.4891357421875,-0.4510498046875,153.11175620159747,77.8624260936587,56.947349540849665,1.0760791828165304,,,,3,0,3,3
1788937739.0471306,3000559923.0,-9.62109375,0.9140625,-1.7578125,0.015625,-0.021484375,0.029296875,35.9375,-4.125,-20.0625,35.9375,-4.125,-20.0625,-0.0007509477387319628,-0.7680860838099313,0.07281450043211411,0.6361927793223047,153.78643595764882,77.7395201285373,-32.088919435367394,0.45050048828125,0.59539794921875,0.48895263671875,-0.45111083984375,153.0110823311526,77.88484050434296,56.84248267105602,0.6596917450456062,,,,3,0,3,3
1788937739.0590308,3000569189.0,-9.62109375,0.9140625,-1.83203125,0.00390625,-0.017578125,0.02734375,32.625,-5.6875,-19.0,32.625,-5.6875,-19.0,-0.0008211229425823485,-0.7678325760963913,0.07321710082147798,0.6364524467621993,153.5481054877899,77.75715710924315,-32.35427894817393,0.4505615234375,0.59539794921875,0.48883056640625,-0.45111083984375,152.93703923214272,77.87111267694182,56.7580263014878,1.111508636047372,,,,3,0,3,3
1788937739.0748234,3000571471.0,-9.6171875,0.9140625,-1.796875,0.0078125,-0.009765625,0.029296875,32.625,-5.6875,-19.0,32.625,-5.6875,-19.0,-0.0008295354807448485,-0.7677699616007296,0.07328450943883622,0.6365202106852613,153.50105510147097,77.76337529950841,-32.40610910015373,0.4505615234375,0.59539794921875,0.48883056640625,-0.45111083984375,152.93703923214272,77.87111267694182,56.7580263014878,1.1067282806702226,,,,3,0,3,3
1788937739.0750208,3000575301.0,-9.62109375,0.9140625,-1.83203125,0.0078125,-0.015625,0.029296875,32.625,-5.6875,-19.0,32.625,-5.6875,-19.0,-0.0008307705759515172,-0.7676646529313846,0.07344815935369575,0.6366283518250982,153.41312063387954,77.77189816811259,-32.50724960177576,0.4505615234375,0.59539794921875,0.48883056640625,-0.45111083984375,152.93703923214272,77.87111267694182,56.7580263014878,1.0971480998129788,,,,3,0,3,3
1788937739.0769882,3000579931.0,-9.62109375,0.953125,-1.83203125,0.0078125,-0.015625,0.029296875,32.625,-5.6875,-19.0,32.625,-5.6875,-19.0,-0.0009306212261710764,-0.7675579338862125,0.07368203850575253,0.6367298558055047,153.26907291251254,77.77320660902521,-32.662226934534154,0.4505615234375,0.59539794921875,0.48883056640625,-0.45111083984375,152.93703923214272,77.87111267694182,56.7580263014878,1.0849826139305725,,,,3,0,3,3
1788937739.078956,3000582737.0,-9.62109375,0.9140625,-1.83203125,0.005859375,-0.017578125,0.01953125,32.6875,-8.0,-18.875,32.6875,-8.0,-18.875,-0.0009586989490291724,-0.767532551752352,0.07384611286855575,0.6367414031701195,153.20420648012907,77.76805402156694,-32.73821953317638,0.4508056640625,0.59552001953125,0.488525390625,-0.45111083984375,152.73473864945072,77.89121869555201,56.5523340687312,0.5619198909444136,,,,3,0,3,3
1788937739.0880458,3000587143.0,-9.66015625,0.953125,-1.87109375,0.005859375,-0.01171875,0.025390625,32.6875,-8.0,-18.875,32.6875,-8.0,-18.875,-0.0010192454648110382,-0.7675065080576577,0.07411099972147418,0.6367419264883587,153.10024008178996,77.75674302686258,-32.858923687583435,0.4508056640625,0.59552001953125,0.488525390625,-0.45111083984375,152.73473864945072,77.89121869555201,56.5523340687312,0.5411038382828077,,,,3,0,3,3
1788937739.0949314,3000591003.0,-9.66015625,0.9140625,-1.91015625,0.001953125,-0.017578125,0.021484375,32.6875,-3.1875,-18.0625,32.6875,-3.1875,-18.0625,-0.0009978186601552128,-0.7675035330233845,0.0739587054388696,0.6367632535286175,153.14754092312617,77.76550771254253,-32.8008948076531,0.45086669921875,0.59552001953125,0.48846435546875,-0.45111083984375,152.68882025838252,77.89247437848927,56.50593663884376,0.6094959276827872,,,,3,0,3,3
1788937739.0949314,3000595609.0,-9.66015625,0.953125,-1.87109375,0.00390625,-0.017578125,0.0234375,32.6875,-3.1875,-18.0625,32.6875,-3.1875,-18.0625,-0.0009814350737728634,-0.7674905304404749,0.07378194832636642,0.6367994555356968,153.1954147836662,77.77680924289889,-32.73987135622292,0.45086669921875,0.59552001953125,0.48846435546875,-0.45111083984375,152.68882025838252,77.89247437848927,56.50593663884376,0.6206370714115297,,,,3,0,3,3
1788937739.0949314,3000598985.0,-9.65625,0.9140625,-1.94921875,0.00390625,-0.017578125,0.0234375,32.6875,-3.1875,-18.0625,32.6875,-3.1875,-18.0625,-0.0009630913943198188,-0.7674946662849955,0.07365421513880162,0.6368092856352966,153.2381331880038,77.78311883920044,-32.68819170770295,0.45086669921875,0.59552001953125,0.48846435546875,-0.45111083984375,152.68882025838252,77.89247437848927,56.50593663884376,0.6297753626851033,,,,3,0,3,3
1788937739.104353,3000602845.0,-9.66015625,0.9140625,-1.91015625,0.00390625,-0.01953125,0.0234375,32.5,-5.1875,-22.0,32.5,-5.1875,-22.0,-0.0009440969062817344,-0.767507822567361,0.07351248751747202,0.6368098343759564,153.28865617616134,77.78871505652513,-32.6276227462922,0.45098876953125,0.59552001953125,0.48834228515625,-0.45111083984375,152.59692697402014,77.89497391532572,56.413097954880946,0.7386233408696143,,,,3,0,3,3
1788937739.1083026,3000606675.0,-9.66015625,0.9140625,-1.91015625,0.001953125,-0.017578125,0.021484375,32.5,-5.1875,-22.0,32.5,-5.1875,-22.0,-0.0009271418976675565,-0.7675241694203777,0.0733667570940206,0.6368069634645713,153.34087970661523,77.79391046177227,-32.56486257574535,0.45098876953125,0.59552001953125,0.48834228515625,-0.45111083984375,152.59692697402014,77.89497391532572,56.413097954880946,0.7488757476666625,,,,3,0,3,3
1788937739.110574,3000610934.0,-9.6953125,0.953125,-1.91015625,0.009765625,-0.021484375,0.0234375,32.5,-5.1875,-22.0,32.5,-5.1875,-22.0,-0.0009320005600471619,-0.7675359933687264,0.0732133562139536,0.636810360099714,153.38522914285977,77.79928982833202,-32.5075698103671,0.45111083984375,0.59552001953125,0.48822021484375,-0.45111083984375,152.50495872097338,77.89745767209982,56.32020115222421,0.8441914324153121,,,,3,0,3,3
1788937739.110574,3000614410.0,-9.69921875,0.9140625,-1.94921875,0.009765625,-0.021484375,0.0234375,32.5,-5.1875,-22.0,32.5,-5.1875,-22.0,-0.0009102845365304554,-0.767562582717056,0.07310782898514259,0.6367904665868235,153.43275040591013,77.80110576540058,-32.453199771844154,0.45111083984375,0.59552001953125,0.48822021484375,-0.45111083984375,152.50495872097338,77.89745767209982,56.32020115222421,0.8521333960127329,,,,3,0,3,3
1788937739.110574,3000618140.0,-9.65625,0.953125,-1.94921875,0.001953125,-0.021484375,0.021484375,32.5,-5.1875,-22.0,32.5,-5.1875,-22.0,-0.0009312986106131222,-0.7676019578047723,0.07299484501632822,0.6367559341366368,153.47168144470604,77.79955240312704,-32.40334338605837,0.45111083984375,0.59552001953125,0.48822021484375,-0.45111083984375,152.50495872097338,77.89745767209982,56.32020115222421,0.8607354934649933,,,,3,0,3,3
1788937739.110574,3000622100.0,-9.62109375,0.9140625,-1.91015625,-0.001953125,-0.0234375,0.01953125,34.875,-7.375,-25.9375,34.875,-7.375,-25.9375,-0.0009551178333970296,-0.7675877129946185,0.07320225918174765,0.6367492598034992,153.40107827454437,77.79080904861904,-32.488975514596824,0.45123291015625,0.59552001953125,0.48809814453125,-0.45111083984375,152.4129159424583,77.89992563924386,56.22724660854601,0.9239045859881829,,,,3,0,3,3
1788937739.126357,3000626406.0,-9.6171875,0.9140625,-1.94921875,0.0,-0.0234375,0.01953125,34.875,-7.375,-25.9375,34.875,-7.375,-25.9375,-0.0009759181352591473,-0.7675915157206988,0.0734094756087589,0.6367207876834561,153.33926983207698,77.77934962306522,-32.566058499183,0.45123291015625,0.59552001953125,0.48809814453125,-0.45111083984375,152.4129159424583,77.89992563924386,56.22724660854601,0.9123408460060113,,,,3,0,3,3
1788937739.124404,3000630265.0,-9.65625,0.875,-1.94921875,-0.001953125,-0.03125,0.017578125,34.875,-7.375,-25.9375,34.875,-7.375,-25.9375,-0.0009634838881593364,-0.7675885171632054,0.07358197596571725,0.6367045098245885,153.29639746635365,77.77195840535475,-32.62406246588365,0.4512939453125,0.59552001953125,0.48797607421875,-0.451171875,152.35284057246747,77.90596732800607,56.159247926591014,0.9743753555973497,,,,3,0,3,3
1788937739.126357,3000634142.0,-9.66015625,0.875,-1.91015625,-0.001953125,-0.03125,0.017578125,34.875,-7.375,-25.9375,34.875,-7.375,-25.9375,-0.0009430692176069639,-0.7675672624250475,0.07377499777303553,0.6367078277965159,153.24346756346904,77.76672986822362,-32.69443809712255,0.4512939453125,0.59552001953125,0.48797607421875,-0.451171875,152.35284057246747,77.90596732800607,56.159247926591014,0.9642524110867758,,,,3,0,3,3
1788937739.126357,3000637671.0,-9.62109375,0.875,-1.91015625,0.0,-0.03125,0.01171875,34.875,-7.375,-25.9375,34.875,-7.375,-25.9375,-0.0009165064451455011,-0.7675529339004808,0.07394090890845624,0.6367058941666014,153.20300394037906,77.76197192758906,-32.75063453831263,0.4512939453125,0.59552001953125,0.48797607421875,-0.451171875,152.35284057246747,77.90596732800607,56.159247926591014,0.9561803236544131,,,,3,0,3,3
1788937739.143109,3000641431.0,-9.62109375,0.875,-1.87109375,0.001953125,-0.03125,0.017578125,35.0,-6.9375,-20.5,35.0,-6.9375,-20.5,-0.0009157170844365498,-0.767513768018161,0.07414988705620636,0.6367288053907549,153.13120137600083,77.75792598872152,-32.839577425609335,0.451416015625,0.595458984375,0.48785400390625,-0.45123291015625,152.2698951022662,77.91322698982955,56.07365946564495,1.1213088183562212,,,,3,0,3,3
1788937739.1463344,3000645537.0,-9.6171875,0.9140625,-1.796875,0.009765625,-0.03125,0.015625,35.0,-6.9375,-20.5,35.0,-6.9375,-20.5,-0.0009287877709093566,-0.7674237569219837,0.07438186188676553,0.6368102176373136,153.02693379267478,77.76007724843465,-32.96169642953853,0.451416015625,0.595458984375,0.48785400390625,-0.45123291015625,152.2698951022662,77.91322698982955,56.07365946564495,1.1091169812071722,,,,3,0,3,3
1788937739.1443813,3000649567.0,-9.62109375,0.875,-1.83203125,0.009765625,-0.03125,0.015625,35.0,-6.9375,-20.5,35.0,-6.9375,-20.5,-0.0009047623010227087,-0.767356088800322,0.07461676559063964,0.6368643126122258,152.94496075701085,77.76007340229472,-33.06479932810014,0.451416015625,0.595458984375,0.48785400390625,-0.45123291015625,152.2698951022662,77.91322698982955,56.07365946564495,1.0988131747309504,,,,3,0,3,3
1788937739.1463344,3000653550.0,-9.65625,0.875,-1.796875,0.0078125,-0.0234375,0.01953125,32.3125,-6.625,-19.1875,32.3125,-6.625,-19.1875,-0.0008960160498481834,-0.7672795202490402,0.0748460110753406,0.6369296739733132,152.85511941481843,77.76106466673497,-33.17405650127695,0.4515380859375,0.595458984375,0.48773193359375,-0.4512939453125,152.19196985519295,77.93556280887853,55.99702303182877,0.7709074428349285,,,,3,0,3,3
1788937739.158012,3000658056.0,-9.62109375,0.875,-1.7578125,0.0,-0.029296875,0.0234375,32.3125,-6.625,-19.1875,32.3125,-6.625,-19.1875,-0.0009047806726907768,-0.7671668602486369,0.07508533282802558,0.6370371909883185,152.7408949767399,77.76639268193735,-33.30706564049513,0.4515380859375,0.595458984375,0.48773193359375,-0.4512939453125,152.19196985519295,77.93556280887853,55.99702303182877,0.7543625570435655,,,,3,0,3,3
1788937739.155755,3000661239.0,-9.62109375,0.875,-1.71875,0.0,-0.017578125,0.0234375,32.3125,-6.625,-19.1875,32.3125,-6.625,-19.1875,-0.000911466606859145,-0.76708854787339,0.075237064404724,0.637113579426681,152.6650967945453,77.77075677505654,-33.394675707926545,0.45166015625,0.595458984375,0.48760986328125,-0.4512939453125,152.0995303427728,77.93797717206314,55.903709800069315,0.8266359733298222,,,,3,0,3,3
1788937739.158012,3000665545.0,-9.62109375,0.875,-1.7578125,0.0,-0.015625,0.01953125,32.3125,-6.625,-19.1875,32.3125,-6.625,-19.1875,-0.0009104260467790203,-0.767000334300628,0.0754588329480066,0.6371935520995666,152.5693823800033,77.77346919445306,-33.50855737188151,0.45166015625,0.595458984375,0.48760986328125,-0.4512939453125,152.0995303427728,77.93797717206314,55.903709800069315,0.814683146397439,,,,3,0,3,3
1788937739.158012,3000668921.0,-9.66015625,0.875,-1.7578125,0.0,-0.015625,0.01953125,32.3125,-6.625,-19.1875,32.3125,-6.625,-19.1875,-0.0009048400225409268,-0.7669282783006087,0.0756282241202151,0.6372602050370165,152.4960243708723,77.77643076659156,-33.59617785376871,0.45166015625,0.595458984375,0.48760986328125,-0.4512939453125,152.0995303427728,77.93797717206314,55.903709800069315,0.8059944449144426,,,,3,0,3,3
1788937739.1699762,3000672681.0,-9.66015625,0.875,-1.7578125,0.0,-0.015625,0.03125,32.3125,-4.625,-18.5625,32.3125,-4.625,-18.5625,-0.0008826479168150738,-0.7668852750870657,0.07551386050562259,0.6373255468430775,152.51604548113468,77.78968955793442,-33.56855950520253,0.4517822265625,0.595458984375,0.487548828125,-0.4512939453125,152.0356757932931,77.95550886160113,55.84855068941532,0.0,,,,3,0,3,3
1788937739.1739113,3000677587.0,-9.66015625,0.875,-1.7578125,0.0078125,-0.009765625,0.029296875,32.3125,-4.625,-18.5625,32.3125,-4.625,-18.5625,-0.000837235455298136,-0.7668388867983263,0.07537288425197221,0.6373981087595372,152.55029637217112,77.80575148328295,-33.52641895194537,0.4517822265625,0.595458984375,0.487548828125,-0.4512939453125,152.0356757932931,77.95550886160113,55.84855068941532,0.0373384475085919,,,,3,0,3,3
1788937739.1739113,3000680570.0,-9.6953125,0.875,-1.71875,0.01171875,-0.009765625,0.033203125,32.3125,-4.625,-18.5625,32.3125,-4.625,-18.5625,-0.0008121646368290322,-0.766801145492294,0.07530452511720077,0.6374516233857918,152.56156192036582,77.81602212026066,-33.51156272677748,0.451904296875,0.595458984375,0.4874267578125,-0.45123291015625,151.9287322781113,77.93795265836955,55.7386655808359,0.9248170218331598,,,,3,0,3,3
1788937739.1739113,3000685123.0,-9.66015625,0.875,-1.71875,0.01171875,-0.009765625,0.033203125,32.3125,-4.625,-18.5625,32.3125,-4.625,-18.5625,-0.0007742899216875882,-0.7667450759323752,0.0751981035697902,0.6375316731175641,152.5798697632081,77.83154444780486,-33.487573504318824,0.451904296875,0.595458984375,0.4874267578125,-0.45123291015625,151.9287322781113,77.93795265836955,55.7386655808359,0.9269981288333974,,,,3,0,3,3
1788937739.1882117,3000689429.0,-9.6953125,0.875,-1.7578125,0.013671875,0.001953125,0.0390625,32.3125,-4.625,-18.5625,32.3125,-4.625,-18.5625,-0.0007404362490918082,-0.7667176518591058,0.07509948993441434,0.6375763175443477,152.60691017192735,77.84207631923127,-33.45518915288235,0.451904296875,0.595458984375,0.4874267578125,-0.45123291015625,151.9287322781113,77.93795265836955,55.7386655808359,0.9301498644473579,,,,3,0,3,3
1788937739.1899664,3000692889.0,-9.65625,0.875,-1.796875,0.015625,-0.001953125,0.0390625,32.4375,-7.5,-18.5625,32.4375,-7.5,-18.5625,-0.0007699252019298394,-0.7666941736236289,0.07534022656945774,0.6375761143637888,152.52197420509052,77.83254467562091,-33.55741710085823,0.45196533203125,0.5955810546875,0.4873046875,-0.451171875,151.85027056362364,77.93428432877658,55.65576006005917,0.7169447603017765,,,,3,0,3,3
1788937739.1971996,3000696718.0,-9.6171875,0.875,-1.796875,0.015625,0.001953125,0.033203125,32.4375,-7.5,-18.5625,32.4375,-7.5,-18.5625,-0.0007957218699391656,-0.7666756386984264,0.07559795441329963,0.6375678639498624,152.43618785518188,77.82151752184004,-33.662192265101446,0.45196533203125,0.5955810546875,0.4873046875,-0.451171875,151.85027056362364,77.93428432877658,55.65576006005917,0.7041797714182441,,,,3,0,3,3
1788937739.2040112,3000700778.0,-9.6953125,0.9140625,-1.87109375,0.015625,0.0,0.03125,32.4375,-7.5,-18.5625,32.4375,-7.5,-18.5625,-0.0008290652224474864,-0.7666703365089026,0.07586357273494918,0.6375426464951752,152.35141580439787,77.80769823153942,-33.765997732339784,0.4520263671875,0.59564208984375,0.48712158203125,-0.45111083984375,151.73774547034927,77.90042866037214,55.525671056108884,1.3720295660961106,,,,3,0,3,3
1788937739.206268,3000704454.0,-9.66015625,0.953125,-1.87109375,0.015625,0.0,0.03125,32.4375,-7.5,-18.5625,32.4375,-7.5,-18.5625,-0.0008695382268533768,-0.7666658909322805,0.07610282860329534,0.637519423282822,152.27156173665557,77.79472780446146,-33.86214790298878,0.4520263671875,0.59564208984375,0.48712158203125,-0.45111083984375,151.73774547034927,77.90042866037214,55.525671056108884,1.3667392063708004,,,,3,0,3,3
1788937739.206268,3000708960.0,-9.66015625,0.953125,-1.87109375,0.013671875,-0.00390625,0.029296875,32.4375,-7.5,-18.5625,32.4375,-7.5,-18.5625,-0.0009178453734904821,-0.7666550605275128,0.07639006524880229,0.6374980263959331,152.17370033895966,77.77996725182959,-33.97959261939208,0.4520263671875,0.59564208984375,0.48712158203125,-0.45111083984375,151.73774547034927,77.90042866037214,55.525671056108884,1.3609812103045216,,,,3,0,3,3
1788937739.206268,3000711943.0,-9.6953125,0.98828125,-1.87109375,0.013671875,0.0,0.017578125,35.875,-5.375,-24.875,35.875,-5.375,-24.875,-0.0009088882062698914,-0.7666669945357769,0.07627584783066806,0.6374973634842896,152.21209942832235,77.78423822540394,-33.932578826355474,0.45208740234375,0.59576416015625,0.487060546875,-0.45111083984375,151.70261965856196,77.93174206124746,55.497456970833575,0.11396585748191405,,,,3,0,3,3
1788937739.206268,3000716250.0,-9.66015625,0.953125,-1.83203125,0.01171875,-0.00390625,0.025390625,35.875,-5.375,-24.875,35.875,-5.375,-24.875,-0.0008949651007918929,-0.7666637276688696,0.07612533318985068,0.6375193027360629,152.25536075544113,77.79287057365735,-33.87812104389633,0.45208740234375,0.59576416015625,0.487060546875,-0.45111083984375,151.70261965856196,77.93174206124746,55.497456970833575,0.1443491969522901,,,,3,0,3,3
1788937739.2195258,3000719909.0,-9.6953125,0.98828125,-1.83203125,0.013671875,0.0,0.01953125,35.875,-5.375,-24.875,35.875,-5.375,-24.875,-0.0008883870307078827,-0.7666626964258356,0.07599188745840668,0.6375364724610347,152.29245986140552,77.79998573684286,-33.83062795646839,0.4521484375,0.5958251953125,0.4869384765625,-0.4510498046875,151.61897131399135,77.91295788585754,55.40569422192485,0.8034893050685354,,,,3,0,3,3
1788937739.221479,3000724185.0,-9.66015625,0.953125,-1.91015625,0.013671875,0.0,0.01953125,35.875,-5.375,-24.875,35.875,-5.375,-24.875,-0.0008652317181599808,-0.7667000728867753,0.07583611321863036,0.6375101046582544,152.35810627336062,77.80297231326648,-33.75414198755819,0.4521484375,0.5958251953125,0.4869384765625,-0.4510498046875,151.61897131399135,77.91295788585754,55.40569422192485,0.8116409377532284,,,,3,0,3,3
1788937739.221479,3000728492.0,-9.6953125,0.953125,-1.87109375,0.0,-0.00390625,0.015625,35.875,-5.375,-24.875,35.875,-5.375,-24.875,-0.0008576766090069142,-0.7667127112436002,0.07565038762822714,0.6375169814679615,152.41535601555398,77.81060158269185,-33.68230916467442,0.4521484375,0.5958251953125,0.4869384765625,-0.4510498046875,151.61897131399135,77.91295788585754,55.40569422192485,0.8198565485529531,,,,3,0,3,3
1788937739.221479,3000732251.0,-9.66015625,0.98828125,-1.83203125,0.0,0.001953125,0.009765625,36.25,-6.375,-24.875,36.25,-6.375,-24.875,-0.0008999660394389599,-0.766688915460713,0.07550568140782324,0.6375626942081412,152.42782753972173,77.81972708455338,-33.65452624701602,0.4521484375,0.5958251953125,0.48687744140625,-0.4510498046875,151.5902455057252,77.89786489324818,55.36762148145365,1.209963692314996,,,,3,0,2,3
1788937739.2372277,3000736557.0,-9.66015625,0.98828125,-1.91015625,0.00390625,-0.009765625,0.0078125,36.25,-6.375,-24.875,36.25,-6.375,-24.875,-0.0009301733345467143,-0.7667700885290797,0.0754121792638011,0.6374760931465266,152.47619435812047,77.81058216517694,-33.59611612628227,0.4521484375,0.5958251953125,0.48687744140625,-0.4510498046875,151.5902455057252,77.89786489324818,55.36762148145365,1.2147926961115982,,,,3,0,2,3
1788937739.2352746,3000740187.0,-9.66015625,0.98828125,-1.87109375,0.00390625,-0.009765625,0.0078125,36.25,-6.375,-24.875,36.25,-6.375,-24.875,-0.0009747781173036626,-0.7668073417553297,0.07526653017419108,0.6374484291872439,152.51422801811327,77.81020951192008,-33.54255922418038,0.4521484375,0.5958251953125,0.48687744140625,-0.4510498046875,151.5902455057252,77.89786489324818,55.36762148145365,1.219853468761815,,,,3,0,2,3
1788937739.2372277,3000743593.0,-9.58203125,0.98828125,-1.87109375,0.001953125,-0.009765625,0.0078125,36.375,-5.4375,-19.4375,36.375,-5.4375,-19.4375,-0.0009700186030701788,-0.766829275221282,0.0751138281112406,0.6374400634992973,152.56583290830773,77.81459137602818,-33.47885710416453,0.45220947265625,0.59588623046875,0.48681640625,-0.4510498046875,151.5496763455623,77.914079191349,55.330234404801416,0.7833530558623037,,,,3,0,2,3
1788937739.248208,3000747223.0,-9.62109375,0.98828125,-1.87109375,0.0,-0.015625,0.005859375,36.375,-5.4375,-19.4375,36.375,-5.4375,-19.4375,-0.0009632143219796621,-0.7668405606528178,0.0749440802449336,0.637446477433269,152.61823457460358,77.82153521265938,-33.41311987662562,0.45220947265625,0.59588623046875,0.48681640625,-0.4510498046875,151.5496763455623,77.914079191349,55.330234404801416,0.7935097915480004,,,,3,0,2,3
1788937739.253061,3000751282.0,-9.58203125,1.02734375,-1.91015625,0.005859375,-0.015625,-0.00390625,31.8125,-7.75,-20.375,31.8125,-7.75,-20.375,-0.0009865867246994001,-0.7668284671592577,0.0751355034889202,0.6374384556302549,152.5536185386421,77.81295524320278,-33.491497459668714,0.45220947265625,0.5958251953125,0.48681640625,-0.45111083984375,151.55829624818864,77.91891625067396,55.33718015437774,0.9169656515943315,,,,3,0,3,3
1788937739.253061,3000755589.0,-9.62109375,1.02734375,-1.87109375,0.001953125,-0.015625,-0.005859375,31.8125,-7.75,-20.375,31.8125,-7.75,-20.375,-0.0010149624548567529,-0.7668056800958742,0.0753350136969453,0.6374422754533937,152.48055781976254,77.80539561750712,-33.57856593379903,0.45220947265625,0.5958251953125,0.48681640625,-0.45111083984375,151.55829624818864,77.91891625067396,55.33718015437774,0.9065003306642516,,,,3,0,3,3
1788937739.253061,3000759842.0,-9.62109375,1.02734375,-1.91015625,0.001953125,-0.015625,-0.005859375,31.8125,-7.75,-20.375,31.8125,-7.75,-20.375,-0.0010414169239114195,-0.7667920175207108,0.07552807513147254,0.637435822012101,152.41392656976126,77.79679929834296,-33.65884166577837,0.45220947265625,0.5958251953125,0.48681640625,-0.45111083984375,151.55829624818864,77.91891625067396,55.33718015437774,0.8972370387694717,,,,3,0,3,3
1788937739.253061,3000763701.0,-9.58203125,0.98828125,-1.87109375,-0.001953125,-0.01171875,-0.01171875,32.625,-4.625,-18.5625,32.625,-4.625,-18.5625,-0.001009200163457079,-0.7668072694865453,0.07531876149601649,0.6374422931876459,152.48766414314224,77.80619703481293,-33.57059906711604,0.4522705078125,0.59576416015625,0.48681640625,-0.45111083984375,151.53509519975896,77.92010949496543,55.31934311770092,1.027100136836532,,,,3,0,3,3
1788937739.253061,3000767431.0,-9.62109375,0.98828125,-1.83203125,-0.01171875,-0.021484375,-0.013671875,32.625,-4.625,-18.5625,32.625,-4.625,-18.5625,-0.0009886028740717198,-0.7667880651074414,0.07510428247731349,0.6374907314045528,152.54390659435342,77.8206711341325,-33.498453712995264,0.4522705078125,0.59576416015625,0.48681640625,-0.45111083984375,151.53509519975896,77.92010949496543,55.31934311770092,1.0350469553632153,,,,3,0,3,3
1788937739.2689764,3000771190.0,-9.66015625,0.953125,-1.87109375,0.001953125,-0.017578125,-0.013671875,32.5625,-4.6875,-18.9375,32.5625,-4.6875,-18.9375,-0.0009319554438344034,-0.7667899456394103,0.07490385262934865,0.6375121360308694,152.61891765864107,77.83265520290323,-33.41164247402324,0.45233154296875,0.59564208984375,0.48681640625,-0.451171875,151.52048686048803,77.92613460229705,55.30842668663755,1.2455429255601316,,,,3,0,3,3
1788937739.2760196,3000775496.0,-9.69921875,0.953125,-1.796875,-0.00390625,-0.01171875,-0.009765625,32.5625,-4.6875,-18.9375,32.5625,-4.6875,-18.9375,-0.0008866401630378733,-0.766757647045562,0.07468878519242378,0.6375762777369108,152.6792421394755,77.85016092472753,-33.33736821763713,0.45233154296875,0.59564208984375,0.48681640625,-0.451171875,151.52048686048803,77.92613460229705,55.30842668663755,1.2528399654285582,,,,3,0,3,3
1788937739.2760196,3000779273.0,-9.65625,0.953125,-1.796875,-0.00390625,-0.01171875,-0.009765625,32.5625,-4.6875,-18.9375,32.5625,-4.6875,-18.9375,-0.0008498040830890373,-0.7667321775483165,0.07449738424871907,0.6376293480425255,152.73320254132437,77.86506949782151,-33.27071243213152,0.45233154296875,0.59564208984375,0.48681640625,-0.451171875,151.52048686048803,77.92613460229705,55.30842668663755,1.2598136568208111,,,,3,0,3,3
1788937739.2846992,3000782932.0,-9.6953125,0.9140625,-1.7578125,-0.0078125,-0.01171875,-0.00390625,33.5,-5.4375,-17.1875,33.5,-5.4375,-17.1875,-0.0008092405790480332,-0.766650890061424,0.0744135535525091,0.637736921422462,152.73608436573642,77.88346984559112,-33.2641977116176,0.452392578125,0.5955810546875,0.48681640625,-0.45123291015625,151.51157048073622,77.94725913282471,55.30677245483415,1.0474782761725048,,,,3,0,3,3
1788937739.2883706,3000786562.0,-9.73046875,0.9140625,-1.71875,-0.009765625,-0.01171875,-0.009765625,33.5,-5.4375,-17.1875,33.5,-5.4375,-17.1875,-0.0007762558994525832,-0.7665655474321266,0.07433680629276262,0.6378484915299675,152.73253155561457,77.9018343823876,-33.264077688498254,0.452392578125,0.5955810546875,0.48681640625,-0.45123291015625,151.51157048073622,77.94725913282471,55.30677245483415,1.0486670193646885,,,,3,0,3,3
1788937739.2883706,3000790621.0,-9.73046875,0.875,-1.7578125,-0.01171875,-0.005859375,-0.00390625,33.5,-5.4375,-17.1875,33.5,-5.4375,-17.1875,-0.0007076138341148957,-0.7664937683505855,0.07422070168131803,0.6379483441504601,152.75867500613225,77.92149864515844,-33.23395260300176,0.45245361328125,0.59552001953125,0.48687744140625,-0.45123291015625,151.5171719979281,77.9636167693383,55.32707686833247,0.7435499922926813,,,,3,0,3,3
1788937739.2883706,3000795275.0,-9.73046875,0.875,-1.7578125,-0.01171875,-0.005859375,-0.00390625,33.5,-5.4375,-17.1875,33.5,-5.4375,-17.1875,-0.0006289630474048653,-0.7664106350793574,0.07408963789496546,0.6380635300652545,152.78784391386904,77.94406237509244,-33.200382461803855,0.45245361328125,0.59552001953125,0.48687744140625,-0.45123291015625,151.5171719979281,77.9636167693383,55.32707686833247,0.7514416912188843,,,,3,0,3,3
1788937739.3004475,3000798404.0,-9.6953125,0.875,-1.7578125,-0.013671875,-0.009765625,-0.001953125,33.5,-5.4375,-17.1875,33.5,-5.4375,-17.1875,-0.0005787265132439466,-0.7663508506755876,0.07400185088127544,0.6381455671009332,152.8047842504619,77.95970612954525,-33.18029206676687,0.45245361328125,0.59552001953125,0.48687744140625,-0.45123291015625,151.5171719979281,77.9636167693383,55.32707686833247,0.7568541965397233,,,,3,0,3,3
1788937739.3004475,3000802564.0,-9.66015625,0.8359375,-1.7578125,-0.013671875,-0.015625,0.001953125,31.875,-6.125,-21.875,31.875,-6.125,-21.875,-0.0004707805966383489,-0.766251369231306,0.07402605331784019,0.6382622979206612,152.7960667324284,77.97836396200798,-33.1996885052382,0.45257568359375,0.59539794921875,0.48687744140625,-0.45123291015625,151.47061770410073,77.96600801263759,55.29125938509809,1.0141857443727647,,,,3,0,3,3
1788937739.3004475,3000806870.0,-9.65625,0.875,-1.796875,-0.015625,-0.009765625,0.0078125,31.875,-6.125,-21.875,31.875,-6.125,-21.875,-0.0003822241318333591,-0.7661771983080747,0.07416672690999317,0.6383350619517627,152.7593396959477,77.98657061468298,-33.25507267941933,0.45257568359375,0.59539794921875,0.48687744140625,-0.45123291015625,151.47061770410073,77.96600801263759,55.29125938509809,1.0074652032122053,,,,3,0,3,3
1788937739.2984943,3000809953.0,-9.6171875,0.875,-1.796875,-0.005859375,-0.005859375,0.0078125,31.875,-6.125,-21.875,31.875,-6.125,-21.875,-0.000305155274372431,-0.7661374473996467,0.07428583188990888,0.6383689636508313,152.73890147013188,77.9900277538045,-33.29149726638935,0.45269775390625,0.59539794921875,0.48687744140625,-0.451171875,151.42117404011302,77.97870705290558,55.25777480727068,0.5356848798362185,,,,3,0,3,3
1788937739.3004475,3000814029.0,-9.58203125,0.8359375,-1.83203125,-0.005859375,-0.005859375,0.0078125,31.875,-6.125,-21.875,31.875,-6.125,-21.875,-0.00016080632769531944,-0.7661656271001154,0.0743561341314056,0.6383270096969456,152.7861156154782,77.98813190730309,-33.26180679424623,0.45269775390625,0.59539794921875,0.48687744140625,-0.451171875,151.42117404011302,77.97870705290558,55.25777480727068,0.5398039857255534,,,,3,0,3,3
1788937739.316482,3000818335.0,-9.62109375,0.875,-1.87109375,0.005859375,-0.009765625,0.013671875,31.875,-6.125,-21.875,31.875,-6.125,-21.875,-8.850359789787207e-05,-0.7662150671183924,0.0744920383694098,0.6382518306338346,152.79766196459863,77.97675026214749,-33.26731143720126,0.45269775390625,0.59539794921875,0.48687744140625,-0.451171875,151.42117404011302,77.97870705290558,55.25777480727068,0.5352832486037256,,,,3,0,3,3
1788937739.316482,3000822295.0,-9.58203125,0.8359375,-1.83203125,0.00390625,-0.01171875,0.021484375,35.1875,-7.375,-25.875,35.1875,-7.375,-25.875,-2.0789211208459305e-05,-0.7662091834816317,0.07469275609941266,0.638235441590714,152.76624582679182,77.97055068835424,-33.32066399467938,0.45269775390625,0.59539794921875,0.48681640625,-0.451171875,151.39224809215435,77.96351441491812,55.2195442100869,1.0288889025030434,,,,3,0,2,3
1788937739.316482,3000826401.0,-9.58203125,0.875,-1.83203125,0.01171875,-0.005859375,0.01953125,35.1875,-7.375,-25.875,35.1875,-7.375,-25.875,2.0499157408598036e-05,-0.7662065845847186,0.07492699529335588,0.6382111051173542,152.71737030262761,77.96108815794157,-33.392073730178986,0.45269775390625,0.59539794921875,0.48681640625,-0.451171875,151.39224809215435,77.96351441491812,55.2195442100869,1.0205561304680113,,,,3,0,2,3
1788937739.314529,3000830031.0,-9.62109375,0.875,-1.87109375,0.01171875,-0.005859375,0.01953125,35.1875,-7.375,-25.875,35.1875,-7.375,-25.875,5.879701466764505e-05,-0.7662254745983186,0.0751136815856385,0.6381664778552255,152.68952738433657,77.9505122806366,-33.43833372308197,0.45269775390625,0.59539794921875,0.48681640625,-0.451171875,151.39224809215435,77.96351441491812,55.2195442100869,1.0152557265867925,,,,3,0,2,3
1788937739.3324032,3000834414.0,-9.66015625,0.9140625,-1.87109375,0.009765625,-0.0078125,0.0234375,36.1875,-7.4375,-25.75,36.1875,-7.4375,-25.75,6.14316794995723e-05,-0.7662367148149477,0.07535872093227104,0.6381240915959823,152.62949184596295,77.9367465067624,-33.51865642150948,0.4527587890625,0.595458984375,0.4866943359375,-0.451171875,151.3226463572206,77.96460350993188,55.14378317777452,0.953759163628057,,,,3,0,2,3
1788937739.3324032,3000837743.0,-9.62109375,0.875,-1.87109375,0.005859375,-0.01171875,0.025390625,36.1875,-7.4375,-25.75,36.1875,-7.4375,-25.75,9.222717113233459e-05,-0.7662506887941398,0.07552349256387622,0.638087827409056,152.60280323602757,77.92768391421964,-33.56135435132686,0.4527587890625,0.595458984375,0.4866943359375,-0.451171875,151.3226463572206,77.96460350993188,55.14378317777452,0.9493215166643737,,,,3,0,2,3
1788937739.3324032,3000842303.0,-9.66015625,0.9140625,-1.83203125,0.001953125,-0.013671875,0.029296875,36.1875,-7.4375,-25.75,36.1875,-7.4375,-25.75,8.54591179548252e-05,-0.7662148454866256,0.07579977975019553,0.638098108947572,152.5108970357956,77.9192048613262,-33.67530142020774,0.452880859375,0.595458984375,0.486572265625,-0.451171875,151.22964914967724,77.96687208725271,55.05002451477808,1.0032794520169868,,,,3,0,2,3
1788937739.3324032,3000845432.0,-9.66015625,0.953125,-1.87109375,0.005859375,-0.013671875,0.021484375,36.1875,-7.4375,-25.75,36.1875,-7.4375,-25.75,6.320209818551993e-05,-0.766214084777733,0.07597207032482092,0.6380785349972808,152.456294099232,77.90981327197011,-33.74220091937468,0.452880859375,0.595458984375,0.486572265625,-0.451171875,151.22964914967724,77.96687208725271,55.05002451477808,0.9970641371883772,,,,3,0,2,3
1788937739.3481472,3000849685.0,-9.66015625,0.9140625,-1.91015625,0.005859375,-0.013671875,0.021484375,36.1875,-7.4375,-25.75,36.1875,-7.4375,-25.75,7.343560681518995e-05,-0.7662454375339822,0.07616087155745743,0.6380183741156491,152.42334166461765,77.89597870282877,-33.79147441412675,0.452880859375,0.595458984375,0.486572265625,-0.451171875,151.22964914967724,77.96687208725271,55.05002451477808,0.9932755659109771,,,,3,0,2,3
1788937739.3481472,3000853545.0,-9.6953125,0.9140625,-1.87109375,0.009765625,-0.01171875,0.01953125,32.25,-4.25,-18.9375,32.25,-4.25,-18.9375,0.00011149516306016065,-0.7662492580027372,0.07601593954785762,0.6380310643798934,152.47773147879215,77.90420278129167,-33.728316296930764,0.45294189453125,0.59552001953125,0.4864501953125,-0.451171875,151.16006674711087,77.96794100347152,54.97428044537792,0.9444639696854437,,,,3,0,3,3
1788937739.3481472,3000857275.0,-9.6953125,0.953125,-1.91015625,0.009765625,-0.01171875,0.021484375,32.25,-4.25,-18.9375,32.25,-4.25,-18.9375,0.00013379442846904864,-0.7662650328062298,0.07587851224611698,0.6380284734844006,152.52949429675303,77.90953916738002,-33.66712826790146,0.45294189453125,0.59552001953125,0.4864501953125,-0.451171875,151.16006674711087,77.96794100347152,54.97428044537792,0.9506602991369337,,,,3,0,3,3
1788937739.364103,3000861434.0,-9.6953125,0.9140625,-1.83203125,0.0078125,-0.017578125,0.015625,32.25,-4.25,-18.9375,32.25,-4.25,-18.9375,0.0001760704416466176,-0.766249340724558,0.07571450307461162,0.6380667918506217,152.58231283920824,77.92187046344563,-33.604305681228624,0.4530029296875,0.59552001953125,0.486328125,-0.45123291015625,151.09879079288788,77.97384630162712,54.90521407531646,1.019681574127157,,,,3,0,3,3
1788937739.3648138,3000864810.0,-9.62109375,0.953125,-1.83203125,0.0078125,-0.017578125,0.015625,32.25,-4.25,-18.9375,32.25,-4.25,-18.9375,0.0001971633256452793,-0.7662401983265721,0.07557826843370496,0.6380939154510419,152.62272895786032,77.93092080278532,-33.55444242423878,0.4530029296875,0.59552001953125,0.486328125,-0.45123291015625,151.09879079288788,77.97384630162712,54.90521407531646,1.0250436516051347,,,,3,0,3,3
1788937739.3639219,3000869117.0,-9.62109375,0.953125,-1.83203125,0.01171875,-0.021484375,0.0078125,32.25,-4.25,-18.9375,32.25,-4.25,-18.9375,0.00024107766598312184,-0.766224664825473,0.07539677308079679,0.6381340231516052,152.68115055887358,77.94413305449217,-33.484719263201455,0.4530029296875,0.59552001953125,0.486328125,-0.45123291015625,151.09879079288788,77.97384630162712,54.90521407531646,1.0330481022200295,,,,3,0,3,3
1788937739.3748345,3000872876.0,-9.62109375,0.98828125,-1.83203125,0.015625,-0.025390625,0.017578125,33.125,-5.9375,-17.625,33.125,-5.9375,-17.625,0.00017009633261279568,-0.7661869946013984,0.07560990388264326,0.6381540588335797,152.58123355667627,77.93645283470083,-33.596279054633726,0.453125,0.59552001953125,0.48626708984375,-0.45123291015625,151.03471687156136,77.9912982708952,54.84954961754377,0.6198557587881531,,,,3,0,3,3
1788937739.3780332,3000876606.0,-9.66015625,0.98828125,-1.83203125,0.013671875,-0.017578125,0.013671875,33.125,-5.9375,-17.625,33.125,-5.9375,-17.625,0.00010326044764887104,-0.7661532595562912,0.07581602471633309,0.638170120426178,152.48658570745388,77.92863956439362,-33.70233696784586,0.453125,0.59552001953125,0.48626708984375,-0.45123291015625,151.03471687156136,77.9912982708952,54.84954961754377,0.6007462787959699,,,,3,0,3,3
1788937739.3829312,3000880765.0,-9.62109375,0.98828125,-1.87109375,0.009765625,-0.01953125,0.013671875,33.125,-5.9375,-17.625,33.125,-5.9375,-17.625,3.4721450814544456e-05,-0.7661592759755221,0.07601329173757528,0.6381394378271124,152.41101979306438,77.91502644627035,-33.78848499336343,0.45318603515625,0.59552001953125,0.48614501953125,-0.4512939453125,150.97330902646434,77.99719641679567,54.780348394435904,0.6813362967920997,,,,3,0,3,3
1788937739.3829312,3000885118.0,-9.62109375,0.98828125,-1.83203125,0.009765625,-0.01953125,0.013671875,33.125,-5.9375,-17.625,33.125,-5.9375,-17.625,-4.875381875261398e-05,-0.7661257428665572,0.07624656038844371,0.6381518673240426,152.30339098607973,77.9050509983087,-33.90839437942735,0.45318603515625,0.59552001953125,0.48614501953125,-0.4512939453125,150.97330902646434,77.99719641679567,54.780348394435904,0.6631806122499612,,,,3,0,3,3
1788937739.3829312,3000888648.0,-9.66015625,1.02734375,-1.83203125,0.009765625,-0.01953125,0.0078125,33.125,-5.9375,-17.625,33.125,-5.9375,-17.625,-0.00012906772902158674,-0.7660909716577857,0.0764205248769992,0.6381727899742162,152.21232519942257,77.89832236828113,-34.007140972710864,0.45318603515625,0.59552001953125,0.48614501953125,-0.4512939453125,150.97330902646434,77.99719641679567,54.780348394435904,0.6484282257700935,,,,3,0,3,3
1788937739.3937566,3000892807.0,-9.66015625,0.953125,-1.7578125,0.001953125,-0.021484375,0.00390625,32.125,-6.9375,-18.1875,32.125,-6.9375,-18.1875,-0.00015862288969852438,-0.7660261120055805,0.07663068661633321,0.6382254369994211,152.11746418822872,77.89648889178237,-34.116750584580345,0.4532470703125,0.595458984375,0.486083984375,-0.45135498046875,150.9348317321757,78.00315287084959,54.73989618309431,0.8318625964605462,,,,3,0,3,3
1788937739.3937566,3000896914.0,-9.65625,0.98828125,-1.796875,0.013671875,-0.0234375,0.0078125,32.125,-6.9375,-18.1875,32.125,-6.9375,-18.1875,-0.00018648433178773493,-0.7659741082907979,0.07686037480583668,0.6382602239184402,152.02373824195627,77.8917231000295,-34.2269739172381,0.4532470703125,0.595458984375,0.486083984375,-0.45135498046875,150.9348317321757,78.00315287084959,54.73989618309431,0.8213281615080571,,,,3,0,3,3
1788937739.39723,3000900973.0,-9.6953125,0.953125,-1.7578125,0.005859375,-0.017578125,0.009765625,32.125,-6.9375,-18.1875,32.125,-6.9375,-18.1875,-0.00021311400829980757,-0.7659122158652728,0.0770792037666224,0.6383080984269828,151.92909407379253,77.88903057559479,-34.33731806556561,0.45330810546875,0.595458984375,0.4859619140625,-0.451416015625,150.87324417022612,78.00904032434833,54.67053841147422,0.8813270458399458,,,,3,0,3,3
1788937739.399183,3000903473.0,-9.6953125,0.953125,-1.7578125,0.005859375,-0.017578125,0.009765625,32.125,-6.9375,-18.1875,32.125,-6.9375,-18.1875,-0.00022858891986869855,-0.7658740162153048,0.07721408663624497,0.6383376252879625,151.87111263043963,77.88739601502822,-34.4050533388874,0.45330810546875,0.595458984375,0.4859619140625,-0.451416015625,150.87324417022612,78.00904032434833,54.67053841147422,0.8758308609423969,,,,3,0,3,3
1788937739.399183,3000908179.0,-9.69921875,0.953125,-1.796875,0.01171875,-0.015625,0.001953125,32.125,-6.9375,-18.1875,32.125,-6.9375,-18.1875,-0.00023477331906901806,-0.7658240403020722,0.07746716184258232,0.6383669187958865,151.78035266763078,77.88193355592061,-34.51599295931254,0.45330810546875,0.595458984375,0.4859619140625,-0.451416015625,150.87324417022612,78.00904032434833,54.67053841147422,0.8682554668224216,,,,3,0,3,3
1788937739.399183,3000912339.0,-9.62109375,0.9140625,-1.7578125,0.005859375,-0.009765625,0.009765625,35.375,-5.25,-24.25,35.375,-5.25,-24.25,-0.00019525254972284557,-0.7658024250243747,0.07729773575547509,0.6384133987866368,151.82994682506177,77.89552798412582,-34.455718481452024,0.453369140625,0.595458984375,0.48590087890625,-0.45147705078125,150.8408067489224,78.03020197330422,54.639413203113655,0.3096182867525814,,,,3,0,3,3
1788937739.415685,3000916245.0,-9.62109375,0.9140625,-1.83203125,0.009765625,-0.005859375,0.009765625,35.375,-5.25,-24.25,35.375,-5.25,-24.25,-0.0001512657219610005,-0.7658115518871503,0.07713524717394957,0.6384221156556918,151.89300016884116,77.90423458480936,-34.38294418976335,0.453369140625,0.595458984375,0.48590087890625,-0.45147705078125,150.8408067489224,78.03020197330422,54.639413203113655,0.32586610549940737,,,,3,0,3,3
1788937739.4137318,3000920275.0,-9.6171875,0.9140625,-1.796875,0.009765625,-0.005859375,0.009765625,35.375,-5.25,-24.25,35.375,-5.25,-24.25,-0.00010744637424739824,-0.7658088454907805,0.07696970552832531,0.6384453500921105,151.95171399709858,77.91488271563236,-34.31423559437031,0.453369140625,0.595458984375,0.48590087890625,-0.45147705078125,150.8408067489224,78.03020197330422,54.639413203113655,0.34118672648700127,,,,3,0,3,3
1788937739.415685,3000924257.0,-9.6171875,0.9140625,-1.796875,0.013671875,-0.0078125,0.0078125,34.1875,-5.9375,-25.875,34.1875,-5.9375,-25.875,-4.821050314469759e-05,-0.7657988767745639,0.07681130813663363,0.6384763902830728,152.01118470020361,77.92691514016401,-34.246603424345636,0.453369140625,0.595458984375,0.48583984375,-0.45147705078125,150.81157012603106,78.01492240465885,54.601104686688856,0.9541548368853552,,,,3,0,3,3
1788937739.415685,3000927887.0,-9.62109375,0.9140625,-1.83203125,0.005859375,-0.0078125,0.0078125,34.1875,-5.9375,-25.875,34.1875,-5.9375,-25.875,-4.488470948546116e-06,-0.7658098769662535,0.07665427768880524,0.6384820702516186,152.0738541656495,77.93498908944837,-34.17464120719531,0.453369140625,0.595458984375,0.48583984375,-0.45147705078125,150.81157012603106,78.01492240465885,54.601104686688856,0.9607446575245694,,,,3,0,3,3
1788937739.4324305,3000932346.0,-9.62109375,0.9140625,-1.83203125,0.009765625,-0.015625,0.009765625,35.4375,-7.625,-24.1875,35.4375,-7.625,-24.1875,1.8840596073788133e-05,-0.7657886644784887,0.07689823197511651,0.6384781773251033,152.00852361977755,77.92691519875035,-34.26182919277325,0.453369140625,0.595458984375,0.48577880859375,-0.4515380859375,150.7966062214707,78.0197090887087,54.57874153282114,0.9837256165562108,,,,3,0,3,3
1788937739.4324305,3000935376.0,-9.62109375,0.9140625,-1.83203125,0.005859375,-0.01171875,0.0078125,35.4375,-7.625,-24.1875,35.4375,-7.625,-24.1875,3.391203613451346e-05,-0.7657785245008155,0.07705754918001184,0.6384711304183596,151.9674929263939,77.92105104660155,-34.31712452085074,0.453369140625,0.595458984375,0.48577880859375,-0.4515380859375,150.7966062214707,78.0197090887087,54.57874153282114,0.9800852769127578,,,,3,0,3,3
1788937739.4324305,3000939429.0,-9.62109375,0.9140625,-1.87109375,0.005859375,-0.01171875,0.0078125,35.4375,-7.625,-24.1875,35.4375,-7.625,-24.1875,5.3965481948476044e-05,-0.765787624141798,0.07725276967229439,0.6384366228349893,151.92733078753446,77.9106182227951,-34.374914614656724,0.453369140625,0.595458984375,0.48577880859375,-0.4515380859375,150.7966062214707,78.0197090887087,54.57874153282114,0.977082543382106,,,,3,0,3,3
1788937739.4324305,3000943389.0,-9.62109375,0.9140625,-1.87109375,0.01171875,-0.01171875,0.005859375,35.625,-6.0625,-20.6875,35.625,-6.0625,-20.6875,0.0001482744067489117,-0.7658345904721627,0.07713184865875593,0.6383948903096873,152.01475972911672,77.91351430861864,-34.28529712226611,0.45343017578125,0.595458984375,0.4857177734375,-0.4515380859375,150.7498096182115,78.02079910404396,54.531595009005024,1.0161157526942874,,,,3,0,3,3
1788937739.4485607,3000948095.0,-9.66015625,0.953125,-1.87109375,0.005859375,-0.01953125,0.0078125,35.625,-6.0625,-20.6875,35.625,-6.0625,-20.6875,0.00021140773014308625,-0.7658873505201459,0.07697961936617186,0.6383499509064304,152.10151359254039,77.9157586634214,-34.19125957236052,0.45343017578125,0.595458984375,0.4857177734375,-0.4515380859375,150.7498096182115,78.02079910404396,54.531595009005024,1.0245286014352375,,,,3,0,3,3
1788937739.449043,3000951278.0,-9.6953125,0.9140625,-1.83203125,0.009765625,-0.021484375,0.009765625,32.0,-5.625,-18.75,32.0,-5.625,-18.75,0.0003229868185522763,-0.7658724802875402,0.07688426698871129,0.6383792361185746,152.1616737258862,77.92752992929474,-34.13235513506283,0.45343017578125,0.595458984375,0.48565673828125,-0.45159912109375,150.7348023255033,78.02558604537806,54.50919284530967,1.058119645401905,,,,3,0,3,3
1788937739.449043,3000955631.0,-9.65625,0.9140625,-1.796875,0.009765625,-0.021484375,0.009765625,32.0,-5.625,-18.75,32.0,-5.625,-18.75,0.00045069793778505107,-0.7657992794208841,0.07677738066626763,0.6384798307917413,152.20555221236899,77.9495071996036,-34.09004833145743,0.45343017578125,0.595458984375,0.48565673828125,-0.45159912109375,150.7348023255033,78.02558604537806,54.50919284530967,1.0629592998861181,,,,3,0,3,3
1788937739.4586751,3000959060.0,-9.6953125,0.9140625,-1.7578125,0.005859375,-0.015625,0.013671875,32.0,-5.625,-18.75,32.0,-5.625,-18.75,0.00050514913943239,-0.7657197913659674,0.07673372572622059,0.6385803639879475,152.20269070949482,77.96619755691023,-34.09369400020014,0.45343017578125,0.595458984375,0.48565673828125,-0.45159912109375,150.7348023255033,78.02558604537806,54.50919284530967,1.0631782113435384,,,,3,0,3,3
1788937739.465045,3000963596.0,-9.6953125,0.9140625,-1.71875,0.005859375,-0.015625,0.01171875,33.0625,-6.5,-18.375,33.0625,-6.5,-18.375,0.0005047866431236495,-0.7656109708230482,0.07693618755128405,0.6386864720587937,152.10090716483836,77.97269658054024,-34.21193124593087,0.45355224609375,0.595458984375,0.48553466796875,-0.45159912109375,150.6411065814164,78.02775076511575,54.41481328722796,1.1103312695879661,,,,3,0,3,3
1788937739.4653578,3000967226.0,-9.69921875,0.875,-1.796875,0.015625,-0.01171875,0.013671875,33.0625,-6.5,-18.375,33.0625,-6.5,-18.375,0.0005621164903068933,-0.7655688752003678,0.07714540403500417,0.6387116469783299,152.04805844319912,77.9710005042274,-34.286540318422475,0.45355224609375,0.595458984375,0.48553466796875,-0.45159912109375,150.6411065814164,78.02775076511575,54.41481328722796,1.1065053568075522,,,,3,0,3,3
1788937739.4742022,3000970609.0,-9.69921875,0.875,-1.796875,0.00390625,-0.0078125,0.017578125,33.0625,-6.5,-18.375,33.0625,-6.5,-18.375,0.0005999352168799016,-0.7655334370593627,0.07733148791085706,0.6387315850960459,151.99706846997498,77.96861315434194,-34.35581514679515,0.45361328125,0.595458984375,0.4854736328125,-0.45166015625,150.60851166763632,78.04892238372881,54.383469092722386,0.7422260678794154,,,,3,0,3,3
1788937739.4761553,3000974962.0,-9.65625,0.875,-1.796875,0.00390625,-0.0078125,0.017578125,33.0625,-6.5,-18.375,33.0625,-6.5,-18.375,0.0006481043600100333,-0.7654964136348549,0.07757198549590259,0.6387467477327279,151.93483157867067,77.96412798882443,-34.44163443681906,0.45361328125,0.595458984375,0.4854736328125,-0.45166015625,150.60851166763632,78.04892238372881,54.383469092722386,0.7367845521912736,,,,3,0,3,3
1788937739.4761553,3000978592.0,-9.6171875,0.9140625,-1.796875,0.013671875,-0.009765625,0.017578125,33.0625,-6.5,-18.375,33.0625,-6.5,-18.375,0.0006569239050691588,-0.7654679294383517,0.07779171162778088,0.6387541522795496,151.86734595524464,77.95770133879306,-34.52780819706022,0.45361328125,0.595458984375,0.4854736328125,-0.45166015625,150.60851166763632,78.04892238372881,54.383469092722386,0.7306647633881287,,,,3,0,3,3
1788937739.4854047,3000982651.0,-9.62109375,0.953125,-1.83203125,0.017578125,-0.0078125,0.015625,32.5625,-6.1875,-19.4375,32.5625,-6.1875,-19.4375,0.0006626514680357004,-0.7654827196402976,0.07801333933590045,0.6387093906549264,151.81745817074201,77.94440331184867,-34.59632802741956,0.45361328125,0.59552001953125,0.48541259765625,-0.45166015625,150.5855393941101,78.04885641609539,54.35466538729035,0.5963769293624163,,,,3,0,3,3
1788937739.486965,3000986757.0,-9.6171875,0.953125,-1.796875,0.015625,-0.017578125,0.015625,32.5625,-6.1875,-19.4375,32.5625,-6.1875,-19.4375,0.0006741118946402408,-0.7654222635580822,0.07825985970731313,0.6387516719206042,151.72995529673307,77.94155581925199,-34.70490088960662,0.45361328125,0.59552001953125,0.48541259765625,-0.45166015625,150.5855393941101,78.04885641609539,54.35466538729035,0.5880812304565146,,,,3,0,3,3
1788937739.4870288,3000990817.0,-9.578125,0.953125,-1.796875,0.021484375,-0.017578125,0.009765625,32.5625,-6.1875,-19.4375,32.5625,-6.1875,-19.4375,0.0007025871013639682,-0.7653793072356547,0.07850382798740135,0.6387731768148681,151.6572512642804,77.93685086474015,-34.799866596632015,0.45367431640625,0.59552001953125,0.48529052734375,-0.45166015625,150.50926068706627,78.03461374774326,54.26909063431785,1.086438203545061,,,,3,0,3,3
1788937739.488982,3000994693.0,-9.62109375,0.953125,-1.83203125,0.021484375,-0.017578125,0.009765625,32.5625,-6.1875,-19.4375,32.5625,-6.1875,-19.4375,0.0007468848504354498,-0.7653926897227467,0.07869625918880493,0.6387334118955168,151.62903904698598,77.92683941207173,-34.847458006822535,0.45367431640625,0.59552001953125,0.48529052734375,-0.45166015625,150.50926068706627,78.03461374774326,54.26909063431785,1.087731207820903,,,,3,0,3,3
1788937739.498748,3000998123.0,-9.62109375,0.953125,-1.83203125,0.021484375,-0.017578125,0.015625,32.5625,-6.1875,-19.4375,32.5625,-6.1875,-19.4375,0.0007863324306026537,-0.7654051155974322,0.07887100255789702,0.6386969200286646,151.60332028498556,77.9176647746618,-34.8907121569775,0.45367431640625,0.59552001953125,0.48529052734375,-0.45166015625,150.50926068706627,78.03461374774326,54.26909063431785,1.0893045882305359,,,,3,0,3,3
1788937739.502252,3001002182.0,-9.62109375,0.953125,-1.83203125,0.017578125,-0.015625,0.013671875,31.1875,-7.125,-22.375,31.1875,-7.125,-22.375,0.0008001042508932069,-0.7653845137279124,0.07911005918125466,0.6386920263436933,151.53671310985976,77.90911299651349,-34.97800479634357,0.4537353515625,0.5955810546875,0.48516845703125,-0.45172119140625,150.45367187614238,78.05571897297195,54.20886960883716,0.5840647488840899,,,,3,0,3,3
1788937739.502252,3001006089.0,-9.62109375,0.953125,-1.83203125,0.02734375,-0.017578125,0.013671875,31.1875,-7.125,-22.375,31.1875,-7.125,-22.375,0.0008302976409384808,-0.7653624778488456,0.07935210250590732,0.638688368404181,151.4748534212868,77.90130097204997,-35.06213005364334,0.4537353515625,0.5955810546875,0.48516845703125,-0.45172119140625,150.45367187614238,78.05571897297195,54.20886960883716,0.5849215663555195,,,,3,0,3,3
1788937739.500299,3001010118.0,-9.66015625,0.98828125,-1.83203125,0.02734375,-0.017578125,0.013671875,31.1875,-7.125,-22.375,31.1875,-7.125,-22.375,0.0008442353410660999,-0.765334296292647,0.07960402218686602,0.6386907716857984,151.40182634481096,77.89318956734616,-35.156904458592486,0.4537353515625,0.5955810546875,0.48516845703125,-0.45172119140625,150.45367187614238,78.05571897297195,54.20886960883716,0.585289403499449,,,,3,0,3,3
1788937739.515107,3001014101.0,-9.66015625,0.98828125,-1.83203125,0.01953125,-0.01171875,0.01171875,35.5625,-6.3125,-25.0625,35.5625,-6.3125,-25.0625,0.0008804439678529946,-0.7653404761584621,0.07945037923202859,0.6387024484154141,151.4578729860134,77.90173263122249,-35.09122145039497,0.4537353515625,0.5955810546875,0.48504638671875,-0.4517822265625,150.40903555168734,78.04518340970965,54.147950091486045,1.0851244189830553,,,,3,0,3,3
1788937739.5162752,3001017731.0,-9.66015625,0.98828125,-1.87109375,0.021484375,-0.017578125,0.00390625,35.5625,-6.3125,-25.0625,35.5625,-6.3125,-25.0625,0.0009229928148138524,-0.7653691055485312,0.07931447489476826,0.6386849727590844,151.52171763612478,77.9061978372259,-35.01973053075778,0.4537353515625,0.5955810546875,0.48504638671875,-0.4517822265625,150.40903555168734,78.04518340970965,54.147950091486045,1.0883123171024036,,,,3,0,3,3
1788937739.5162752,3001021990.0,-9.65625,0.953125,-1.796875,0.0234375,-0.015625,0.0078125,34.9375,-8.25,-25.3125,34.9375,-8.25,-25.3125,0.0009576984810144291,-0.765327233817215,0.0795700131736361,0.6387033121840349,151.4492074660398,77.90088828140436,-35.115961301755014,0.4537353515625,0.59564208984375,0.48492431640625,-0.451904296875,150.3851494981351,78.07004635850224,54.112361389645926,0.5771339550716463,,,,3,0,3,3
1788937739.5162752,3001026096.0,-9.69921875,0.953125,-1.796875,0.0078125,-0.015625,0.0078125,34.9375,-8.25,-25.3125,34.9375,-8.25,-25.3125,0.0009710600968557298,-0.7652831761241624,0.07979583885680835,0.6387279088036947,151.37569941784736,77.89649685809086,-35.20901776764693,0.4537353515625,0.59564208984375,0.48492431640625,-0.451904296875,150.3851494981351,78.07004635850224,54.112361389645926,0.5759213350305765,,,,3,0,3,3
1788937739.5162752,3001030250.0,-9.69921875,0.953125,-1.796875,0.0078125,-0.015625,0.0078125,34.9375,-8.25,-25.3125,34.9375,-8.25,-25.3125,0.000986617595878617,-0.7652386508780264,0.08002418498861566,0.6387526623075672,151.3022115202136,77.89210890250553,-35.3024393616636,0.4537353515625,0.59564208984375,0.48492431640625,-0.451904296875,150.3851494981351,78.07004635850224,54.112361389645926,0.5761308268654198,,,,3,0,3,3
1788937739.5378816,3001034209.0,-9.66015625,0.953125,-1.7578125,0.021484375,-0.0078125,0.009765625,35.9375,-5.875,-24.9375,35.9375,-5.875,-24.9375,0.001042908630865071,-0.7652158798341477,0.07988534757649801,0.6387972298263519,151.3487169178763,77.90518294836014,-35.24911678950929,0.4537353515625,0.59564208984375,0.48486328125,-0.45196533203125,150.36991095590133,78.07484864839243,54.08974659493253,0.6209623525591378,,,,3,0,3,3
1788937739.5378816,3001037739.0,-9.69921875,0.953125,-1.796875,0.015625,-0.017578125,0.009765625,35.9375,-5.875,-24.9375,35.9375,-5.875,-24.9375,0.0010887227841164242,-0.7651962850382172,0.07974829095851572,0.6388377494603826,151.39244197685792,77.91722007305916,-35.19787140948163,0.4537353515625,0.59564208984375,0.48486328125,-0.45196533203125,150.36991095590133,78.07484864839243,54.08974659493253,0.6225697388517357,,,,3,0,3,3
1788937739.5422363,3001041121.0,-9.7265625,0.9140625,-1.796875,0.013671875,-0.0078125,0.01171875,35.9375,-5.875,-24.9375,35.9375,-5.875,-24.9375,0.0011393845577446972,-0.765187841396126,0.07962000991492826,0.6388637751536032,151.44075246311954,77.92730492770224,-35.14316459765764,0.4537353515625,0.59564208984375,0.4847412109375,-0.4520263671875,150.3251246861831,78.0642985088266,54.028720907320434,1.1055190643258288,,,,3,0,3,3
1788937739.5452263,3001045228.0,-9.73046875,0.9140625,-1.7578125,0.013671875,-0.009765625,0.00390625,35.9375,-5.875,-24.9375,35.9375,-5.875,-24.9375,0.0012083318666605105,-0.7651611753494109,0.07946026962201844,0.638915472675067,151.49598184792936,77.94255522582209,-35.08043257091898,0.4537353515625,0.59564208984375,0.4847412109375,-0.4520263671875,150.3251246861831,78.0642985088266,54.028720907320434,1.1079035525400625,,,,3,0,3,3
1788937739.5471938,3001049881.0,-9.66015625,0.9140625,-1.7578125,0.013671875,-0.009765625,0.00390625,35.9375,-5.875,-24.9375,35.9375,-5.875,-24.9375,0.0012840358759687385,-0.7651358221010492,0.0792752033630263,0.6389686746010101,151.56109963808535,77.95918041015443,-35.006288700199775,0.4537353515625,0.59564208984375,0.4847412109375,-0.4520263671875,150.3251246861831,78.0642985088266,54.028720907320434,1.1111663501189453,,,,3,0,3,3
1788937739.5491614,3001053540.0,-9.6953125,0.875,-1.71875,0.01171875,-0.009765625,0.00390625,31.375,-5.5625,-18.8125,31.375,-5.5625,-18.8125,0.0013773709538179302,-0.7650797822951744,0.07918214169707687,0.6390471172055221,151.59503730048354,77.97648404505162,-34.972268724710425,0.4537353515625,0.595703125,0.48468017578125,-0.4520263671875,150.30221414286507,78.06424071384914,53.99997277126648,1.031977357210597,,,,3,0,3,3
1788937739.5491614,3001057070.0,-9.66015625,0.9140625,-1.71875,0.001953125,-0.005859375,0.001953125,31.375,-5.5625,-18.8125,31.375,-5.5625,-18.8125,0.001437797776561685,-0.7650225060620882,0.07908599912277599,0.6391274541895289,151.61713592092377,77.99272472516355,-34.94715730797269,0.4537353515625,0.595703125,0.48468017578125,-0.4520263671875,150.30221414286507,78.06424071384914,53.99997277126648,1.0337770943702749,,,,3,0,3,3
1788937739.56557,3001061229.0,-9.66015625,0.875,-1.71875,0.013671875,-0.001953125,-0.001953125,33.1875,-5.375,-17.25,33.1875,-5.375,-17.25,0.0015490276676081865,-0.764984525391716,0.07894883672164252,0.6391896100569809,151.67764535046325,78.01028561576166,-34.884425749755096,0.45379638671875,0.595703125,0.48468017578125,-0.45208740234375,150.29895107467658,78.10083265239213,54.00671075919265,0.0,,,,3,0,3,3
1788937739.56557,3001064959.0,-9.66015625,0.9140625,-1.7578125,0.0078125,-0.005859375,0.001953125,33.1875,-5.375,-17.25,33.1875,-5.375,-17.25,0.0016299648294576942,-0.7649565350066517,0.07880860885535527,0.6392402098863584,151.73234684533986,78.02517571122524,-34.824796158947116,0.45379638671875,0.595703125,0.48468017578125,-0.45208740234375,150.29895107467658,78.10083265239213,54.00671075919265,0.0,,,,3,0,3,3
1788937739.56557,3001069612.0,-9.66015625,0.9140625,-1.7578125,0.0078125,-0.005859375,0.001953125,33.1875,-5.375,-17.25,33.1875,-5.375,-17.25,0.001730139745084384,-0.7649212887368588,0.07863363940941819,0.6393036676000187,151.8003656802521,78.04374776199595,-34.750562223921236,0.45379638671875,0.595703125,0.48468017578125,-0.45208740234375,150.29895107467658,78.10083265239213,54.00671075919265,0.0,,,,3,0,3,3
1788937739.56557,3001072695.0,-9.69921875,0.953125,-1.796875,0.00390625,-0.001953125,0.00390625,32.0625,-4.5,-17.9375,32.0625,-4.5,-17.9375,0.0017638958421031224,-0.7649246031056205,0.07849448955044737,0.6393167097342145,151.8514673471986,78.05177322057479,-34.6908119168202,0.45379638671875,0.595703125,0.484619140625,-0.45208740234375,150.2694036742773,78.08544934887016,53.96830763910596,0.6675053087947879,,,,3,0,3,3
1788937739.5807512,3001076601.0,-9.6953125,0.953125,-1.83203125,0.009765625,0.00390625,0.001953125,32.0625,-4.5,-17.9375,32.0625,-4.5,-17.9375,0.0018167636232170343,-0.7649498560132638,0.07832043221466872,0.639307693566198,151.92888630627112,78.05901599001565,-34.60346020218635,0.45379638671875,0.595703125,0.484619140625,-0.45208740234375,150.2694036742773,78.08544934887016,53.96830763910596,0.6784168763382988,,,,3,0,3,3
1788937739.580284,3001080660.0,-9.65625,0.98828125,-1.796875,0.01171875,-0.001953125,0.005859375,32.0625,-4.5,-17.9375,32.0625,-4.5,-17.9375,0.0018526118015769692,-0.7649557239450689,0.07814708701937911,0.6393217820656306,151.99123070417843,78.06844322705008,-34.529839528195986,0.45379638671875,0.595703125,0.484619140625,-0.45208740234375,150.2694036742773,78.08544934887016,53.96830763910596,0.6871672780760597,,,,3,0,3,3
1788937739.5822372,3001084737.0,-9.66015625,0.953125,-1.7578125,0.01171875,-0.001953125,0.005859375,32.0625,-4.5,-17.9375,32.0625,-4.5,-17.9375,0.001901198205713966,-0.7649468016388635,0.07798111791155886,0.639352579847082,152.04991822321904,78.0802748011651,-34.46150309613865,0.45379638671875,0.595703125,0.484619140625,-0.45208740234375,150.2694036742773,78.08544934887016,53.96830763910596,0.6965255909661359,,,,3,0,3,3
1788937739.5822372,3001089143.0,-9.65625,0.98828125,-1.796875,0.01171875,0.00390625,-0.001953125,32.0625,-4.5,-17.9375,32.0625,-4.5,-17.9375,0.0019469031166134308,-0.7649630107892718,0.07777937356121,0.6393576235104207,152.1284315223652,78.08992846454058,-34.37019974579043,0.45379638671875,0.595703125,0.484619140625,-0.45208740234375,150.2694036742773,78.08544934887016,53.96830763910596,0.7086920205493765,,,,3,0,3,3
1788937739.5909526,3001093003.0,-9.65625,0.98828125,-1.796875,0.0078125,0.001953125,-0.00390625,32.6875,-6.0625,-18.6875,32.6875,-6.0625,-18.6875,0.0018859951048080465,-0.7649501644411663,0.07795905804563764,0.6393512917110079,152.0516265720622,78.08024012366886,-34.456754277975065,0.45379638671875,0.595703125,0.484619140625,-0.45208740234375,150.2694036742773,78.08544934887016,53.96830763910596,0.6960770900981934,,,,3,0,3,3
1788937739.5976453,3001095932.0,-9.66015625,0.98828125,-1.83203125,0.009765625,0.00390625,-0.01171875,32.6875,-6.0625,-18.6875,32.6875,-6.0625,-18.6875,0.0018574320390452514,-0.7649740070173987,0.07807469825442147,0.6393087360786227,152.02053703652774,78.06952474308646,-34.49501305779694,0.45379638671875,0.595703125,0.484619140625,-0.45208740234375,150.2694036742773,78.08544934887016,53.96830763910596,0.6909030734694401,,,,3,0,3,3
1788937739.5975604,3001099962.0,-9.62109375,0.98828125,-1.83203125,0.009765625,0.00390625,-0.01171875,32.6875,-6.0625,-18.6875,32.6875,-6.0625,-18.6875,0.0018183218355245871,-0.7650129436084494,0.07822686111868102,0.6392436530907105,151.9825230631882,78.05419438982008,-34.54234368605553,0.45379638671875,0.595703125,0.484619140625,-0.45208740234375,150.2694036742773,78.08544934887016,53.96830763910596,0.6848147410895209,,,,3,0,3,3
1788937739.5975604,3001103945.0,-9.62109375,0.98828125,-1.83203125,0.013671875,-0.0078125,-0.009765625,32.125,-7.1875,-22.5625,32.125,-7.1875,-22.5625,0.001821725670204953,-0.7650099489083305,0.07841712729868654,0.6392239150196729,151.93170340789575,78.04511773134453,-34.609021743304034,0.4537353515625,0.595703125,0.484619140625,-0.4521484375,150.30116661223215,78.08921318952304,53.99303913833427,0.6737369779902289,,,,3,0,3,3
1788937739.5995135,3001107775.0,-9.65625,1.02734375,-1.796875,0.01171875,0.001953125,-0.015625,32.125,-7.1875,-22.5625,32.125,-7.1875,-22.5625,0.001812622635415774,-0.7650010552399575,0.07859304821800285,0.6392129791022205,151.8775063596471,78.03712877438089,-34.67687981270607,0.4537353515625,0.595703125,0.484619140625,-0.4521484375,150.30116661223215,78.08921318952304,53.99303913833427,0.6680405427448335,,,,3,0,3,3
1788937739.6125076,3001112034.0,-9.6171875,1.02734375,-1.796875,0.0078125,-0.00390625,-0.017578125,35.0,-7.25,-24.875,35.0,-7.25,-24.875,0.0017707941221641761,-0.7649843261008528,0.0787710939531619,0.6392112012986185,151.80714754490742,78.02882484141153,-34.75840465207933,0.45367431640625,0.59564208984375,0.484619140625,-0.45220947265625,150.32632462481598,78.07765861347626,54.008144097538725,1.1755484184768816,,,,3,0,3,3
1788937739.6155438,3001116040.0,-9.69921875,1.02734375,-1.796875,0.017578125,0.001953125,-0.025390625,35.0,-7.25,-24.875,35.0,-7.25,-24.875,0.0017609170614918267,-0.7649642113920923,0.07894063244950118,0.6392143857962285,151.7495359439795,78.02280393612843,-34.82908200613623,0.45367431640625,0.59564208984375,0.484619140625,-0.45220947265625,150.32632462481598,78.07765861347626,54.008144097538725,1.1727256791452676,,,,3,0,3,3
1788937739.6135907,3001120070.0,-9.6171875,1.06640625,-1.7578125,0.017578125,0.001953125,-0.025390625,35.0,-7.25,-24.875,35.0,-7.25,-24.875,0.0017293599624931004,-0.7649302918689862,0.07909500404131813,0.6392359800817312,151.68177258108616,78.01872510521723,-34.906892615913264,0.45367431640625,0.59564208984375,0.484619140625,-0.45220947265625,150.32632462481598,78.07765861347626,54.008144097538725,1.168776348361744,,,,3,0,3,3
1788937739.6111166,3001124053.0,-9.65625,1.10546875,-1.7578125,0.01171875,0.00390625,-0.0234375,35.5625,-8.3125,-25.5625,35.5625,-8.3125,-25.5625,0.0017151620213922752,-0.7649124521856769,0.07926166636614541,0.6392367221580726,151.62447555294435,78.0122831192615,-34.9766710313005,0.45361328125,0.59564208984375,0.48468017578125,-0.4522705078125,150.38771796568113,78.09678992216077,54.07137149359257,0.7575499246893013,,,,3,0,2,3
1788937739.6155438,3001127582.0,-9.65625,1.02734375,-1.796875,0.009765625,0.00390625,-0.029296875,35.5625,-8.3125,-25.5625,35.5625,-8.3125,-25.5625,0.001728549949390475,-0.7649091261228096,0.07940485397229867,0.6392228954400414,151.59018599524745,78.00599872572985,-35.023776778288784,0.45361328125,0.59564208984375,0.48468017578125,-0.4522705078125,150.38771796568113,78.09678992216077,54.07137149359257,0.757540113385351,,,,3,0,2,3
1788937739.632144,3001131942.0,-9.6953125,1.02734375,-1.71875,0.005859375,0.005859375,-0.029296875,35.5625,-8.3125,-25.5625,35.5625,-8.3125,-25.5625,0.0017413380950306123,-0.764872960627152,0.07956844460494714,0.6392457934677734,151.53561617405234,78.00362593512092,-35.09275540302107,0.4534912109375,0.5955810546875,0.4847412109375,-0.45233154296875,150.46014055146136,78.08416329395168,54.13401041175084,1.209011832980451,,,,3,0,2,3
1788937739.6379087,3001135071.0,-9.66015625,0.98828125,-1.71875,0.001953125,0.0078125,-0.041015625,35.5625,-8.3125,-25.5625,35.5625,-8.3125,-25.5625,0.0017694866631544721,-0.7648504232611913,0.0796698367267279,0.6392600535541557,151.50925215024935,78.00303001042366,-35.12969503428982,0.4534912109375,0.5955810546875,0.4847412109375,-0.45233154296875,150.46014055146136,78.08416329395168,54.13401041175084,1.209662917296216,,,,3,0,2,3
1788937739.6386492,3001139625.0,-9.62109375,0.953125,-1.71875,0.001953125,0.0078125,-0.041015625,35.5625,-8.3125,-25.5625,35.5625,-8.3125,-25.5625,0.0018290760297078967,-0.7648187665751094,0.07981935772058704,0.6392791087689937,151.47779562599263,78.00267602618068,-35.178219604995945,0.4534912109375,0.5955810546875,0.4847412109375,-0.45233154296875,150.46014055146136,78.08416329395168,54.13401041175084,1.2117554185397583,,,,3,0,2,3
1788937739.6444654,3001143784.0,-9.66015625,0.953125,-1.71875,-0.00390625,0.0078125,-0.04296875,35.625,-6.0,-20.3125,35.625,-6.0,-20.3125,0.0019230634206039772,-0.7647871914399081,0.079600458382368,0.6393438985881187,151.55609748010087,78.02278452538218,-35.08960085599828,0.453369140625,0.59552001953125,0.48486328125,-0.452392578125,150.56224587630234,78.08688856931897,54.23520370720228,1.2599703996331488,,,,3,0,2,3
1788937739.652309,3001147314.0,-9.6171875,0.953125,-1.796875,0.0,0.0078125,-0.044921875,35.625,-6.0,-20.3125,35.625,-6.0,-20.3125,0.002020157188759635,-0.7648153581364993,0.07937154787850033,0.6393383644916375,151.6653154374685,78.0344091797761,-34.969554672657374,0.453369140625,0.59552001953125,0.48486328125,-0.452392578125,150.56224587630234,78.08688856931897,54.23520370720228,1.2651300653751516,,,,3,0,2,3
1788937739.652309,3001151273.0,-9.62109375,0.9140625,-1.7578125,0.00390625,0.017578125,-0.04296875,35.625,-6.0,-20.3125,35.625,-6.0,-20.3125,0.002150093565492945,-0.7648278733970097,0.07914363752130121,0.6393512225784542,151.77975729776904,78.04970636907977,-34.84702451730964,0.4532470703125,0.595458984375,0.48504638671875,-0.45245361328125,150.69398242907863,78.10496372122775,54.37503211119593,0.9735534060988567,,,,3,0,2,3
1788937739.6543162,3001154650.0,-9.65625,0.9140625,-1.796875,0.00390625,0.017578125,-0.04296875,35.625,-6.0,-20.3125,35.625,-6.0,-20.3125,0.0022666096915538564,-0.7648605411352876,0.07893959527353628,0.6393369654515462,151.8921438054427,78.060082044743,-34.727432457669885,0.4532470703125,0.595458984375,0.48504638671875,-0.45245361328125,150.69398242907863,78.10496372122775,54.37503211119593,0.9823942423922994,,,,3,0,2,3
1788937739.6583307,3001159456.0,-9.578125,0.953125,-1.796875,0.001953125,0.017578125,-0.03125,35.625,-6.0,-20.3125,35.625,-6.0,-20.3125,0.002358645829282882,-0.7649227648918745,0.0786511463050519,0.6392977379319618,152.03129623789724,78.06914752375843,-34.572196867679594,0.4532470703125,0.595458984375,0.48504638671875,-0.45245361328125,150.69398242907863,78.10496372122775,54.37503211119593,0.9920852930189497,,,,3,0,2,3
1788937739.6640937,3001163515.0,-9.6171875,0.953125,-1.796875,0.001953125,0.017578125,-0.033203125,32.4375,-5.5,-18.0,32.4375,-5.5,-18.0,0.002439228469868003,-0.7649652134311691,0.07840488630978008,0.6392768932218872,152.14631400597872,78.07853495705295,-34.44360257650162,0.453125,0.59539794921875,0.48516845703125,-0.4525146484375,150.7962931810115,78.10764812076262,54.47645863808908,1.0521760059642336,,,,3,0,3,3
1788937739.667691,3001166645.0,-9.578125,0.9140625,-1.796875,0.001953125,0.01953125,-0.0390625,32.4375,-5.5,-18.0,32.4375,-5.5,-18.0,0.002541513394504083,-0.7650095726897451,0.0782185830147439,0.6392462339927273,152.25442462460109,78.08544301412013,-34.328594277869485,0.453125,0.59539794921875,0.48516845703125,-0.4525146484375,150.7962931810115,78.10764812076262,54.47645863808908,1.0615116259802406,,,,3,0,3,3
1788937739.6733572,3001170504.0,-9.62109375,0.9140625,-1.87109375,0.0,0.017578125,-0.03515625,32.4375,-5.5,-18.0,32.4375,-5.5,-18.0,0.002634633076331468,-0.7651164179634724,0.07805889017976185,0.6391374932948324,152.3796234898855,78.08098351439278,-34.19798959326329,0.4530029296875,0.5953369140625,0.4853515625,-0.4525146484375,150.91377295787106,78.10548149873087,54.60043126477218,1.0963172802883958,,,,3,0,3,3
1788937739.675614,3001174581.0,-9.58203125,0.875,-1.83203125,0.0,0.017578125,-0.03515625,32.4375,-5.5,-18.0,32.4375,-5.5,-18.0,0.002776967839507902,-0.7652006567725047,0.07785152618352462,0.6390613297606434,152.52623238262234,78.08436546004252,-34.04605384890481,0.4530029296875,0.5953369140625,0.4853515625,-0.4525146484375,150.91377295787106,78.10548149873087,54.60043126477218,1.1097397158375422,,,,3,0,3,3
1788937739.6801903,3001178787.0,-9.66015625,0.875,-1.83203125,0.001953125,0.013671875,-0.03125,32.4375,-5.5,-18.0,32.4375,-5.5,-18.0,0.0029326593199058408,-0.7652661681043437,0.0776370610277227,0.6390082771132042,152.6717249901083,78.09144835477338,-33.89572275995431,0.4530029296875,0.5953369140625,0.4853515625,-0.4525146484375,150.91377295787106,78.10548149873087,54.60043126477218,1.1241317689553136,,,,3,0,3,3
1788937739.6798692,3001182846.0,-9.62109375,0.875,-1.83203125,-0.0078125,0.015625,-0.02734375,33.0625,-5.5625,-18.3125,33.0625,-5.5625,-18.3125,0.003052871064690026,-0.7653381399595348,0.0774229801419848,0.6389474889593632,152.8067020213664,78.09597313053936,-33.75305879719668,0.45294189453125,0.59527587890625,0.4854736328125,-0.45257568359375,150.99857200736076,78.12461134497819,54.693137501645346,0.8207480357091015,,,,3,0,3,3
1788937739.6821434,3001186753.0,-9.66015625,0.875,-1.83203125,-0.017578125,0.015625,-0.02734375,33.0625,-5.5625,-18.3125,33.0625,-5.5625,-18.3125,0.0031585088497602435,-0.7653996779615213,0.07720107308397255,0.6389001104342751,152.93388185879132,78.10182650693662,-33.61635634343073,0.45294189453125,0.59527587890625,0.4854736328125,-0.45257568359375,150.99857200736076,78.12461134497819,54.693137501645346,0.8377203315574535,,,,3,0,3,3
1788937739.6904895,3001190782.0,-9.66015625,0.875,-1.91015625,-0.017578125,0.015625,-0.02734375,33.0625,-5.5625,-18.3125,33.0625,-5.5625,-18.3125,0.003224776713694114,-0.7655103818843805,0.07704637834176455,0.6387858104457192,153.04919927002692,78.09507428593882,-33.49386349923459,0.45294189453125,0.59527587890625,0.4854736328125,-0.45257568359375,150.99857200736076,78.12461134497819,54.693137501645346,0.852866906864108,,,,3,0,3,3
1788937739.695201,3001193989.0,-9.66015625,0.875,-1.91015625,-0.009765625,0.015625,-0.025390625,33.375,-6.0625,-18.3125,33.375,-6.0625,-18.3125,0.0032600018818904996,-0.765592084850943,0.07705831510156255,0.6386862673292928,153.094619125354,78.08326704642373,-33.45236254153458,0.452880859375,0.59521484375,0.485595703125,-0.4525146484375,151.05455886247407,78.10330284091003,54.75348563171893,1.2554549917642275,,,,3,0,3,3
1788937739.6987593,3001198795.0,-9.6953125,0.875,-1.87109375,-0.005859375,0.017578125,-0.017578125,33.375,-6.0625,-18.3125,33.375,-6.0625,-18.3125,0.0033364410843225753,-0.7656992512402228,0.077136045552623,0.63854800546831,153.14860925829672,78.06592526692552,-33.41105675768862,0.452880859375,0.59521484375,0.485595703125,-0.4525146484375,151.05455886247407,78.10330284091003,54.75348563171893,1.2624068764156047,,,,3,0,3,3
1788937739.6970527,3001201878.0,-9.66015625,0.875,-1.83203125,-0.005859375,0.01171875,-0.017578125,32.3125,-6.9375,-21.25,32.3125,-6.9375,-21.25,0.0033520314539749,-0.7657126175195502,0.07725869869971465,0.6385170669071558,153.12687012536378,78.05842359975539,-33.444122109493875,0.452880859375,0.59515380859375,0.4857177734375,-0.4525146484375,151.1072933685267,78.11869026570902,54.821195509279725,0.9910735240222145,,,,3,0,3,3
1788937739.6992662,3001206084.0,-9.6953125,0.875,-1.83203125,-0.0078125,0.00390625,-0.013671875,32.3125,-6.9375,-21.25,32.3125,-6.9375,-21.25,0.00337015920039027,-0.7657155221608201,0.07743112284994054,0.6384926016510638,153.08809683091874,78.05017619110258,-33.498495022302414,0.452880859375,0.59515380859375,0.4857177734375,-0.4525146484375,151.1072933685267,78.11869026570902,54.821195509279725,0.9897290897195766,,,,3,0,3,3
1788937739.697313,3001209914.0,-9.6953125,0.8359375,-1.83203125,-0.0078125,0.00390625,-0.013671875,32.3125,-6.9375,-21.25,32.3125,-6.9375,-21.25,0.0034201426752790837,-0.7657204304153197,0.07758190503930361,0.6384681457043341,153.06816632375458,78.04397566963591,-33.5348466894706,0.452880859375,0.59515380859375,0.4857177734375,-0.4525146484375,151.1072933685267,78.11869026570902,54.821195509279725,0.9914426223179333,,,,3,0,3,3
1788937739.714448,3001214096.0,-9.6953125,0.875,-1.83203125,-0.001953125,0.01171875,-0.0078125,36.0,-7.25,-24.75,36.0,-7.25,-24.75,0.0035133043521326907,-0.7657376294926355,0.07774868954378907,0.6384267230824162,153.06554070781326,78.03682873648586,-33.55872916047569,0.45281982421875,0.59515380859375,0.48583984375,-0.4525146484375,151.18376126176958,78.13296387245224,54.90728958392508,0.38543817407356484,,,,3,0,3,3
1788937739.7156184,3001217626.0,-9.65625,0.875,-1.796875,0.00390625,0.01171875,-0.013671875,36.0,-7.25,-24.75,36.0,-7.25,-24.75,0.003604415551707963,-0.7657106790035162,0.07788517134778193,0.6384419036471771,153.05133332008074,78.03793096935688,-33.591503426445605,0.45281982421875,0.59515380859375,0.48583984375,-0.4525146484375,151.18376126176958,78.13296387245224,54.90728958392508,0.39589632537431385,,,,3,0,3,3
1788937739.7156184,3001221785.0,-9.69921875,0.875,-1.796875,0.00390625,0.009765625,-0.0078125,36.0,-7.25,-24.75,36.0,-7.25,-24.75,0.0037131088098745916,-0.7656641592473988,0.07803820408366363,0.6384783839491642,153.03083355144244,78.04194846191946,-33.63333801862044,0.4527587890625,0.59515380859375,0.48583984375,-0.4525146484375,151.2014681820242,78.1164511759073,54.916123983122155,0.9400015242417613,,,,3,0,3,3
1788937739.7156184,3001226292.0,-9.66015625,0.875,-1.7578125,0.001953125,0.0078125,-0.005859375,36.0,-7.25,-24.75,36.0,-7.25,-24.75,0.00379608336484707,-0.765582886182184,0.07815664607946096,0.6385608606935241,152.99493997872784,78.05200532030292,-33.685607741223635,0.4527587890625,0.59515380859375,0.48583984375,-0.4525146484375,151.2014681820242,78.1164511759073,54.916123983122155,0.941954525234615,,,,3,0,3,3
1788937739.7156184,3001229468.0,-9.66015625,0.875,-1.7578125,0.001953125,0.0078125,-0.005859375,36.0,-7.25,-24.75,36.0,-7.25,-24.75,0.0038569537067836422,-0.7655258515006705,0.07823938536686229,0.6386187385049804,152.97081427154146,78.0591829248457,-33.72140950091675,0.4527587890625,0.59515380859375,0.48583984375,-0.4525146484375,151.2014681820242,78.1164511759073,54.916123983122155,0.9438211992595047,,,,3,0,3,3
1788937739.7300987,3001233228.0,-9.62109375,0.875,-1.7578125,0.009765625,0.005859375,-0.001953125,34.8125,-6.4375,-25.8125,34.8125,-6.4375,-25.8125,0.003926159176860844,-0.7655011398998106,0.07810111948036595,0.6386648614274331,153.02378484044397,78.07270299745744,-33.66272040034805,0.4527587890625,0.59515380859375,0.48590087890625,-0.4525146484375,151.2308183232912,78.13183879701957,54.95474570582064,0.34565718329807776,,,,3,0,2,3
1788937739.7424052,3001237934.0,-9.6171875,0.875,-1.796875,0.015625,0.009765625,-0.005859375,34.8125,-6.4375,-25.8125,34.8125,-6.4375,-25.8125,0.0040395495564918725,-0.7655160400690161,0.07789922981131642,0.638670951610637,153.1281078920053,78.0850287857219,-33.55109999202546,0.4527587890625,0.59515380859375,0.48590087890625,-0.4525146484375,151.2308183232912,78.13183879701957,54.95474570582064,0.3750022684284352,,,,3,0,2,3
1788937739.7424052,3001241117.0,-9.62109375,0.875,-1.7578125,0.009765625,0.01171875,0.0,35.75,-7.375,-20.0625,35.75,-7.375,-20.0625,0.00404122891898627,-0.7655001194452113,0.0780648717922149,0.6386697984015345,153.07677059536664,78.0793407242533,-33.61612665376872,0.45269775390625,0.59515380859375,0.48590087890625,-0.4525146484375,151.24852959100048,78.11532556838753,54.963568122436165,0.924541528920329,,,,3,0,2,3
1788937739.7424052,3001245670.0,-9.62109375,0.875,-1.7578125,0.009765625,0.01171875,0.0,35.75,-7.375,-20.0625,35.75,-7.375,-20.0625,0.00404558326328126,-0.7654767283379696,0.07830170334989572,0.6386688147088154,153.00394756644383,78.0713579234287,-33.70868138508607,0.45269775390625,0.59515380859375,0.48590087890625,-0.4525146484375,151.24852959100048,78.11532556838753,54.963568122436165,0.9229463932112624,,,,3,0,2,3
1788937739.7494345,3001249000.0,-9.578125,0.9140625,-1.796875,0.021484375,0.013671875,0.001953125,35.75,-7.375,-20.0625,35.75,-7.375,-20.0625,0.004041748521613939,-0.7654822447321562,0.07848927611058179,0.638639202370434,152.9540469460968,78.06100236729908,-33.773640442165,0.45269775390625,0.59515380859375,0.48590087890625,-0.4525146484375,151.24852959100048,78.11532556838753,54.963568122436165,0.9226957579652104,,,,3,0,2,3
1788937739.7494345,3001252959.0,-9.6171875,0.875,-1.796875,0.015625,0.01171875,0.00390625,31.875,-8.625,-20.0625,31.875,-8.625,-20.0625,0.004044681278511697,-0.7654893608350378,0.07870946183218311,0.6386035543432313,152.89869488397102,78.04903077116717,-33.847275296852814,0.45257568359375,0.59527587890625,0.48590087890625,-0.4525146484375,151.29584223763757,78.11305808885453,55.00011829012657,0.61371226796924,,,,3,0,3,3
1788937739.7494345,3001257265.0,-9.62109375,0.875,-1.83203125,0.013671875,0.015625,0.0,31.875,-8.625,-20.0625,31.875,-8.625,-20.0625,0.00405030189488908,-0.7655099793369453,0.07893744986444318,0.6385506601664493,152.84826820285906,78.03467446472689,-33.91685633262718,0.45257568359375,0.59527587890625,0.48590087890625,-0.4525146484375,151.29584223763757,78.11305808885453,55.00011829012657,0.617081270714366,,,,3,0,3,3
1788937739.7494345,3001260448.0,-9.66015625,0.9140625,-1.83203125,0.01171875,0.01171875,-0.001953125,31.875,-8.625,-20.0625,31.875,-8.625,-20.0625,0.0040490790670680695,-0.7655196325057568,0.07910190907462528,0.6385187430198969,152.80773655499394,78.02489522313837,-33.97077118382287,0.4525146484375,0.59527587890625,0.48590087890625,-0.4525146484375,151.31355069518577,78.09657053977915,55.00892079162775,1.0490695318695906,,,,3,0,3,3
1788937739.764326,3001265601.0,-9.66015625,0.9140625,-1.87109375,0.01171875,0.01171875,-0.001953125,31.875,-8.625,-20.0625,31.875,-8.625,-20.0625,0.004048092305133969,-0.7655441843382705,0.07936417656518197,0.6384567661577969,152.7476257304014,78.00790471047026,-34.05231267939381,0.4525146484375,0.59527587890625,0.48590087890625,-0.4525146484375,151.31355069518577,78.09657053977915,55.00892079162775,1.0522220443851464,,,,3,0,3,3
1788937739.768397,3001268631.0,-9.6171875,0.875,-1.796875,0.0078125,0.0078125,-0.001953125,31.875,-8.625,-20.0625,31.875,-8.625,-20.0625,0.004049444093811355,-0.7655457739115741,0.07951856722043038,0.6384356408565157,152.7074665258166,77.99995171765897,-34.10523302912605,0.4525146484375,0.59527587890625,0.48590087890625,-0.4525146484375,151.31355069518577,78.09657053977915,55.00892079162775,1.0541296540864789,,,,3,0,3,3
1788937739.768397,3001272690.0,-9.69921875,0.9140625,-1.796875,0.015625,0.017578125,0.001953125,32.6875,-5.0625,-18.25,32.6875,-5.0625,-18.25,0.004119800591237826,-0.7655611891233827,0.07935606472819245,0.6384369255783501,152.7841387028895,78.00863564834096,-34.02098575573993,0.4525146484375,0.5953369140625,0.48590087890625,-0.45245361328125,151.30502081633017,78.09172858477262,55.0020328132042,0.9450780890277422,,,,3,0,3,3
1788937739.768397,3001276796.0,-9.69921875,0.875,-1.796875,0.001953125,0.013671875,0.0078125,32.6875,-5.0625,-18.25,32.6875,-5.0625,-18.25,0.004178229601917375,-0.7655734423404695,0.07918568389843382,0.6384430078291208,152.8571940713961,78.01768664297946,-33.93873670061378,0.4525146484375,0.5953369140625,0.48590087890625,-0.45245361328125,151.30502081633017,78.09172858477262,55.0020328132042,0.9487647295902955,,,,3,0,3,3
1788937739.7795808,3001280626.0,-9.65625,0.875,-1.796875,0.001953125,0.013671875,0.0078125,32.6875,-5.0625,-18.25,32.6875,-5.0625,-18.25,0.00423128065616242,-0.7655879324124281,0.079024666542861,0.6384452334274741,152.92679683030886,78.02567859272705,-33.86027236128897,0.4525146484375,0.5953369140625,0.48590087890625,-0.45245361328125,151.30502081633017,78.09172858477262,55.0020328132042,0.9525954298863469,,,,3,0,3,3
1788937739.7819753,3001284809.0,-9.65625,0.875,-1.796875,-0.005859375,0.013671875,0.005859375,32.6875,-6.5625,-18.75,32.6875,-6.5625,-18.75,0.004232854862225921,-0.7655757159755724,0.0792320304226264,0.6384341715504529,152.8662748001238,78.01724975665032,-33.93789972565686,0.45245361328125,0.59539794921875,0.48590087890625,-0.452392578125,151.3141918871277,78.07043253674016,55.00394459927074,1.1834458945467936,,,,3,0,3,3
1788937739.7819753,3001288639.0,-9.66015625,0.875,-1.83203125,0.00390625,0.013671875,0.0078125,32.6875,-6.5625,-18.75,32.6875,-6.5625,-18.75,0.00424981439136064,-0.7655939474514447,0.07943024120727604,0.638387565265104,152.82733277754693,78.00519271695866,-33.994478916763605,0.45245361328125,0.59539794921875,0.48590087890625,-0.452392578125,151.3141918871277,78.07043253674016,55.00394459927074,1.186716366393299,,,,3,0,3,3
1788937739.7894382,3001292498.0,-9.62109375,0.875,-1.83203125,0.009765625,0.01171875,0.009765625,33.0,-5.125,-18.5625,33.0,-5.125,-18.5625,0.004313288538589643,-0.7656255113069037,0.0792758123439684,0.6383684810164337,152.90637328944945,78.01066056706792,-33.907980594051004,0.45245361328125,0.595458984375,0.48590087890625,-0.452392578125,151.32010307434192,78.08574917233386,55.013376971241804,0.6794658172846965,,,,3,0,3,3
1788937739.7983525,3001296704.0,-9.58203125,0.875,-1.83203125,0.005859375,0.009765625,0.013671875,33.0,-5.125,-18.5625,33.0,-5.125,-18.5625,0.004368895003221663,-0.7656606579426882,0.07910789789447459,0.6383467788952475,152.9877168857227,78.01589932583157,-33.81743793525843,0.45245361328125,0.595458984375,0.48590087890625,-0.452392578125,151.32010307434192,78.08574917233386,55.013376971241804,0.6863810014129483,,,,3,0,3,3
1788937739.7968147,3001299757.0,-9.578125,0.875,-1.796875,0.005859375,0.009765625,0.013671875,33.0,-5.125,-18.5625,33.0,-5.125,-18.5625,0.00440753423810592,-0.7656718695318894,0.07898748547875514,0.638347976410378,153.03958951071166,78.02175046547242,-33.75885472976615,0.45245361328125,0.595458984375,0.48590087890625,-0.452392578125,151.32010307434192,78.08574917233386,55.013376971241804,0.6907062566812882,,,,3,0,3,3
1788937739.7987678,3001303940.0,-9.578125,0.9140625,-1.796875,0.015625,0.01171875,0.015625,32.625,-7.0,-21.5,32.625,-7.0,-21.5,0.004392451339503704,-0.7656664608162954,0.07924011348469333,0.638323257893061,152.9635049275935,78.00935542724793,-33.854404575232344,0.45245361328125,0.59552001953125,0.48583984375,-0.45233154296875,151.28239915246388,78.06558864708009,54.9680313098054,1.0153863187303245,,,,3,0,3,3
1788937739.7987678,3001308246.0,-9.6171875,0.9140625,-1.796875,0.009765625,0.01171875,0.01953125,32.625,-7.0,-21.5,32.625,-7.0,-21.5,0.004367703913764813,-0.7656543929554586,0.07949900258116063,0.6383057122563848,152.87941923355584,77.99724474382997,-33.9576766755514,0.45245361328125,0.59552001953125,0.48583984375,-0.45233154296875,151.28239915246388,78.06558864708009,54.9680313098054,1.0149841441710385,,,,3,0,3,3
1788937739.8144784,3001311629.0,-9.62109375,0.953125,-1.83203125,0.005859375,0.015625,0.013671875,32.625,-7.0,-21.5,32.625,-7.0,-21.5,0.0043295422835441764,-0.7656667227879875,0.07968564642057067,0.638267908039605,152.82043145130316,77.98441196977772,-34.02886442566763,0.45245361328125,0.5955810546875,0.48583984375,-0.4522705078125,151.27393256418307,78.06074463064192,54.96120125618795,0.8958535010243681,,,,3,0,3,3
1788937739.8154178,3001315935.0,-9.6171875,0.953125,-1.796875,0.005859375,0.01953125,0.009765625,32.625,-7.0,-21.5,32.625,-7.0,-21.5,0.0042862377248293875,-0.7656654726001796,0.07992035136913507,0.6382403541544078,152.74094124141754,77.97102148791323,-34.124061701655634,0.45245361328125,0.5955810546875,0.48583984375,-0.4522705078125,151.27393256418307,78.06074463064192,54.96120125618795,0.8953596062674632,,,,3,0,3,3
1788937739.8154178,3001319412.0,-9.6171875,0.953125,-1.796875,0.005859375,0.01953125,0.009765625,32.625,-7.0,-21.5,32.625,-7.0,-21.5,0.004253035730338156,-0.7656636120595074,0.08011006292193776,0.6382190240612604,152.6771480560987,77.96037789901384,-34.20069718923923,0.45245361328125,0.5955810546875,0.48583984375,-0.4522705078125,151.27393256418307,78.06074463064192,54.96120125618795,0.8957027759252636,,,,3,0,3,3
1788937739.8154178,3001324248.0,-9.65625,0.953125,-1.796875,0.005859375,0.015625,0.0078125,34.8125,-8.375,-26.3125,34.8125,-8.375,-26.3125,0.004233560177067992,-0.7656577184540246,0.08037300541943208,0.6381931644414977,152.59741652140963,77.94719576921389,-34.300385578171095,0.452392578125,0.59564208984375,0.48583984375,-0.45220947265625,151.28311846756233,78.03949059260667,54.96315185220163,1.139156796431945,,,,3,0,2,3
1788937739.8154178,3001327978.0,-9.65625,0.953125,-1.796875,0.0,0.01953125,0.009765625,34.8125,-8.375,-26.3125,34.8125,-8.375,-26.3125,0.004208865372201302,-0.765656972101967,0.08057170039463156,0.6381691684964451,152.53520923900518,77.93622654576788,-34.37686592162904,0.452392578125,0.59564208984375,0.48583984375,-0.45220947265625,151.28311846756233,78.03949059260667,54.96315185220163,1.1411467152121146,,,,3,0,2,3
1788937739.8335981,3001331737.0,-9.6953125,0.953125,-1.83203125,-0.001953125,0.013671875,0.0078125,35.6875,-6.25,-24.3125,35.6875,-6.25,-24.3125,0.004214190883681954,-0.7656784729019673,0.08039805161033166,0.6381652372442185,152.5925864177526,77.94193462031923,-34.30571255114619,0.452392578125,0.595703125,0.48583984375,-0.4521484375,151.27467049380772,78.03464875189569,54.956342903786584,1.0342031346953844,,,,3,0,2,3
1788937739.8357236,3001335467.0,-9.62109375,0.953125,-1.87109375,0.001953125,0.01171875,0.005859375,35.6875,-6.25,-24.3125,35.6875,-6.25,-24.3125,0.0042191983991811885,-0.7657368396429707,0.08023283942141192,0.6381159630167871,152.66370723661305,77.9415078996011,-34.22151746064813,0.452392578125,0.595703125,0.48583984375,-0.4521484375,151.27467049380772,78.03464875189569,54.956342903786584,1.033814165227914,,,,3,0,2,3
1788937739.8357236,3001339820.0,-9.66015625,0.9140625,-1.87109375,0.001953125,0.01171875,0.005859375,35.6875,-6.25,-24.3125,35.6875,-6.25,-24.3125,0.004260844078142298,-0.7657947089816114,0.08003978633085623,0.6380704831816169,152.75571608041105,77.94404118328825,-34.11713373786914,0.452392578125,0.595703125,0.48583984375,-0.4521484375,151.27467049380772,78.03464875189569,54.956342903786584,1.0362622201718064,,,,3,0,2,3
1788937739.8438418,3001343479.0,-9.62109375,0.875,-1.91015625,0.001953125,0.009765625,0.009765625,36.0,-5.5,-19.8125,36.0,-5.5,-19.8125,0.0043091467899364745,-0.765848811952592,0.07989412838684304,0.638023476632367,152.8360056180895,77.94500685961563,-34.028891406149626,0.452392578125,0.59576416015625,0.48583984375,-0.45208740234375,151.26623936436908,78.02980472462517,54.94954763924332,0.9245162918659013,,,,3,0,2,3
1788937739.8483827,3001347109.0,-9.62109375,0.9140625,-1.87109375,0.015625,0.015625,0.005859375,36.0,-5.5,-19.8125,36.0,-5.5,-19.8125,0.004366868231246117,-0.7658969069147504,0.07974825865014239,0.6379835998538984,152.91730780779673,77.94726697491839,-33.940379797699705,0.452392578125,0.59576416015625,0.48583984375,-0.45208740234375,151.26623936436908,78.02980472462517,54.94954763924332,0.9299824111019549,,,,3,0,2,3
1788937739.8487682,3001351168.0,-9.66015625,0.953125,-1.87109375,0.021484375,0.009765625,0.01171875,36.0,-5.5,-19.8125,36.0,-5.5,-19.8125,0.004412945247011113,-0.7659393554085936,0.07959660342660571,0.6379512602648126,152.99340093774603,77.95018495825715,-33.85565044838061,0.45233154296875,0.5958251953125,0.48577880859375,-0.45208740234375,151.260682338809,78.01342386895098,54.92936695711735,1.1882586116650256,,,,3,0,2,3
1788937739.8487682,3001355445.0,-9.66015625,0.953125,-1.87109375,0.021484375,0.009765625,0.01171875,36.0,-5.5,-19.8125,36.0,-5.5,-19.8125,0.004459493699652695,-0.7659839564785216,0.07943648430257125,0.6379173428392588,153.07291111512336,77.95318465412448,-33.766851251923846,0.45233154296875,0.5958251953125,0.48577880859375,-0.45208740234375,151.260682338809,78.01342386895098,54.92936695711735,1.1922492262411335,,,,3,0,2,3
1788937739.8487682,3001358475.0,-9.6171875,0.953125,-1.796875,0.025390625,0.015625,0.009765625,36.0,-5.5,-19.8125,36.0,-5.5,-19.8125,0.004493381377000512,-0.7659899091104703,0.07933200969530535,0.637922958438116,153.11620059151988,77.9588527958079,-33.717764518327776,0.45233154296875,0.5958251953125,0.48577880859375,-0.45208740234375,151.260682338809,78.01342386895098,54.92936695711735,1.1944016196444058,,,,3,0,2,3
1788937739.864051,3001362534.0,-9.65625,0.953125,-1.796875,0.021484375,0.015625,0.009765625,32.375,-4.625,-18.25,32.375,-4.625,-18.25,0.004536805187005961,-0.7660025693789465,0.07918444467245644,0.6379257831640467,153.1775787891087,77.96600426323774,-33.64784105783079,0.4522705078125,0.595947265625,0.48577880859375,-0.45208740234375,151.2901434978181,78.02752234017485,54.95690979780356,0.48648197598484044,,,,3,0,3,3
1788937739.8659449,3001366640.0,-9.66015625,0.9140625,-1.83203125,0.009765625,0.01953125,0.009765625,32.375,-4.625,-18.25,32.375,-4.625,-18.25,0.004578544985904488,-0.7660364002282469,0.0790152379152374,0.6379058415066912,153.25329918877472,77.97086165543482,-33.56168608859489,0.4522705078125,0.595947265625,0.48577880859375,-0.45208740234375,151.2901434978181,78.02752234017485,54.95690979780356,0.49656414340100247,,,,3,0,3,3
1788937739.8722613,3001370500.0,-9.66015625,0.9140625,-1.83203125,0.013671875,0.017578125,0.0078125,32.6875,-6.0625,-18.6875,32.6875,-6.0625,-18.6875,0.004588323964775397,-0.766033527269527,0.0792349830434496,0.6378819638807051,153.19663451032528,77.96078022791717,-33.63714835570472,0.45220947265625,0.59600830078125,0.4857177734375,-0.4520263671875,151.27027529701255,77.99109925313438,54.92059398912862,1.2318898646637442,,,,3,0,3,3
1788937739.874229,3001374776.0,-9.65625,0.953125,-1.796875,0.013671875,0.017578125,0.0078125,32.6875,-6.0625,-18.6875,32.6875,-6.0625,-18.6875,0.0045293307042856435,-0.7659807519762529,0.0794199280551033,0.6379227600524907,153.1021852310225,77.95734596211372,-33.741899859479304,0.45220947265625,0.59600830078125,0.4857177734375,-0.4520263671875,151.27027529701255,77.99109925313438,54.92059398912862,1.2263274021690984,,,,3,0,3,3
1788937739.86903,3001378882.0,-9.66015625,0.953125,-1.7578125,0.01171875,0.01953125,-0.001953125,32.6875,-6.0625,-18.6875,32.6875,-6.0625,-18.6875,0.004507634303085118,-0.7659152508901502,0.07952133572799666,0.6379889237681976,153.03868828317283,77.96153465088884,-33.81187669333873,0.45220947265625,0.59600830078125,0.4857177734375,-0.4520263671875,151.27027529701255,77.99109925313438,54.92059398912862,1.222985141168531,,,,3,0,3,3
1788937739.8799427,3001382642.0,-9.6953125,0.9140625,-1.7578125,0.005859375,0.0234375,0.001953125,32.125,-4.5,-17.5625,32.125,-4.5,-17.5625,0.0045499897322314915,-0.7659268473475184,0.0793650698129915,0.6379941596905937,153.10149852137866,77.96926517822504,-33.73971999964908,0.4521484375,0.5960693359375,0.48577880859375,-0.45196533203125,151.30847139393865,77.98513023071048,54.960805942175156,1.100925051476186,,,,3,0,3,3
1788937739.8821251,3001386748.0,-9.69921875,0.9140625,-1.796875,0.013671875,0.01953125,0.001953125,32.125,-4.5,-17.5625,32.125,-4.5,-17.5625,0.004610786857199938,-0.7659468700456934,0.0791957090289047,0.6379907307972211,153.1784828501745,77.97707013716438,-33.65382537334938,0.4521484375,0.5960693359375,0.48577880859375,-0.45196533203125,151.30847139393865,77.98513023071048,54.960805942175156,1.106100098906364,,,,3,0,3,3
1788937739.8876393,3001389801.0,-9.6953125,0.953125,-1.83203125,0.013671875,0.01953125,0.001953125,32.125,-4.5,-17.5625,32.125,-4.5,-17.5625,0.004644431964720296,-0.765970637430505,0.07906379337779469,0.6379783134423491,153.2368640561938,77.9813089462453,-33.58739658058959,0.4521484375,0.5960693359375,0.48577880859375,-0.45196533203125,151.30847139393865,77.98513023071048,54.960805942175156,1.1096075489137949,,,,3,0,3,3
1788937739.8895924,3001393984.0,-9.65625,0.9140625,-1.796875,0.0078125,0.015625,0.005859375,32.625,-4.625,-18.5625,32.625,-4.625,-18.5625,0.0046861819104443295,-0.7659875073477725,0.078887176576056,0.6379796169613151,153.30746750378657,77.98914478558187,-33.50573612618633,0.45208740234375,0.59619140625,0.48577880859375,-0.45196533203125,151.33782317330324,77.99918773703158,54.98825263188374,0.2096527946601144,,,,3,0,3,3
1788937739.8987954,3001397614.0,-9.6171875,0.9140625,-1.796875,0.00390625,0.017578125,0.001953125,32.625,-4.625,-18.5625,32.625,-4.625,-18.5625,0.004719233442549522,-0.7660070404758292,0.07872256202008354,0.6379762542651333,153.37278569121668,77.9955982820677,-33.42963947877129,0.45208740234375,0.59619140625,0.48577880859375,-0.45196533203125,151.33782317330324,77.99918773703158,54.98825263188374,0.2305404895098012,,,,3,0,3,3
1788937739.8987954,3001401673.0,-9.66015625,0.9140625,-1.83203125,0.005859375,0.017578125,0.001953125,32.1875,-5.625,-21.75,32.1875,-5.625,-21.75,0.004749966999350983,-0.7660366921134512,0.07853622305068485,0.6379633890893112,153.44751605141286,78.00143769998209,-33.342172406691844,0.4520263671875,0.59619140625,0.48577880859375,-0.451904296875,151.34107499166203,77.96284708512039,54.98081493691813,1.2287648853705757,,,,3,0,3,3
1788937739.8987954,3001405979.0,-9.66015625,0.9140625,-1.83203125,0.0,0.017578125,-0.005859375,32.1875,-5.625,-21.75,32.1875,-5.625,-21.75,0.0047804395761845385,-0.7660687654071409,0.07831748115724176,0.6379515390766155,153.53207106252276,78.00845740541293,-33.24220765834805,0.4520263671875,0.59619140625,0.48577880859375,-0.451904296875,151.34107499166203,77.96284708512039,54.98081493691813,1.233888352988762,,,,3,0,3,3
1788937739.8987954,3001410132.0,-9.69921875,0.9140625,-1.796875,0.0,0.017578125,-0.005859375,32.1875,-5.625,-21.75,32.1875,-5.625,-21.75,0.004806515212345877,-0.7660592226980373,0.07813744514859981,0.6379848778744226,153.58686470791312,78.0198401519871,-33.174777717821165,0.4520263671875,0.59619140625,0.48577880859375,-0.451904296875,151.34107499166203,77.96284708512039,54.98081493691813,1.2374995779270557,,,,3,0,3,3
1788937739.9151618,3001413715.0,-9.6953125,0.9140625,-1.83203125,-0.005859375,0.0234375,-0.00390625,35.375,-8.6875,-25.0,35.375,-8.6875,-25.0,0.004786895914084731,-0.7660768314745003,0.07830211771237568,0.6379436905144958,153.54212085494885,78.00821763182162,-33.23143238737982,0.45196533203125,0.59625244140625,0.48583984375,-0.45184326171875,151.37911773659647,77.95687344586415,55.02088543093302,1.1106244263910146,,,,3,0,3,3
1788937739.9151618,3001417821.0,-9.66015625,0.875,-1.87109375,0.0,0.01953125,-0.01171875,35.375,-8.6875,-25.0,35.375,-8.6875,-25.0,0.004798594842892489,-0.7661080870129993,0.0784808490141169,0.637884102983324,153.5113171535086,77.99502260139911,-33.27786069445951,0.45196533203125,0.59625244140625,0.48583984375,-0.45184326171875,151.37911773659647,77.95687344586415,55.02088543093302,1.1105824326832827,,,,3,0,3,3
1788937739.9151618,3001421781.0,-9.6953125,0.875,-1.83203125,-0.0078125,0.013671875,-0.0078125,35.375,-8.6875,-25.0,35.375,-8.6875,-25.0,0.004796293765185542,-0.7661157013177761,0.07865471394907299,0.637853559787887,153.4665798507783,77.98517085758989,-33.33666240890913,0.451904296875,0.59625244140625,0.48590087890625,-0.4517822265625,151.4112593824632,77.93576705129078,55.0515650627791,1.3765693947228506,,,,3,0,3,3
1788937739.9151618,3001425357.0,-9.66015625,0.875,-1.87109375,-0.0078125,0.013671875,-0.0078125,35.375,-8.6875,-25.0,35.375,-8.6875,-25.0,0.004793822633039814,-0.7661353577392531,0.07880688739457098,0.6378111847447402,153.43286238702078,77.97450054127357,-33.382665464616316,0.451904296875,0.59625244140625,0.48590087890625,-0.4517822265625,151.4112593824632,77.93576705129078,55.0515650627791,1.3761340357098093,,,,3,0,3,3
1788937739.9151618,3001429664.0,-9.66015625,0.875,-1.87109375,-0.005859375,0.009765625,-0.005859375,35.375,-8.6875,-25.0,35.375,-8.6875,-25.0,0.004792995027589478,-0.7661530677072933,0.07899610319515388,0.6377665087799373,153.389024203856,77.96235628013825,-33.44195652798009,0.451904296875,0.59625244140625,0.48590087890625,-0.4517822265625,151.4112593824632,77.93576705129078,55.0515650627791,1.375894783632867,,,,3,0,3,3
1788937739.932085,3001433323.0,-9.66015625,0.875,-1.83203125,0.001953125,0.013671875,-0.009765625,35.0625,-6.125,-24.0625,35.0625,-6.125,-24.0625,0.00485652995154743,-0.7661758624022027,0.07881269889406918,0.6377613350479185,153.4721814384314,77.97043706914158,-33.34896450922676,0.451904296875,0.59625244140625,0.4859619140625,-0.4517822265625,151.44013177273982,77.9508986345281,55.089698402130175,1.0614223992458802,,,,3,0,3,3
1788937739.932085,3001436953.0,-9.62109375,0.875,-1.83203125,0.005859375,0.01171875,-0.0078125,35.0625,-6.125,-24.0625,35.0625,-6.125,-24.0625,0.004920151028964438,-0.7662005115056482,0.07863595132615155,0.6377530520831448,153.55448479499006,77.97787200113154,-33.257381004473345,0.451904296875,0.59625244140625,0.4859619140625,-0.4517822265625,151.44013177273982,77.9508986345281,55.089698402130175,1.0685763233463073,,,,3,0,3,3
1788937739.932085,3001441112.0,-9.66015625,0.875,-1.87109375,0.0,0.0078125,-0.00390625,36.6875,-6.9375,-19.875,36.6875,-6.9375,-19.875,0.004939426652737102,-0.7662419419949602,0.07880514752738087,0.6376822383564734,153.53356310643318,77.96385849237379,-33.293774013639805,0.45184326171875,0.59625244140625,0.48602294921875,-0.4517822265625,151.48653189398183,77.94975555077289,55.136490904427774,1.0394035872061358,,,,3,0,3,3
1788937739.932085,3001445665.0,-9.62109375,0.875,-1.91015625,0.0,0.0078125,-0.00390625,36.6875,-6.9375,-19.875,36.6875,-6.9375,-19.875,0.004954444592398273,-0.7663198382376163,0.07893967813129754,0.6375718674932116,153.53592927056505,77.94570672894928,-33.30372882873367,0.45184326171875,0.59625244140625,0.48602294921875,-0.4517822265625,151.48653189398183,77.94975555077289,55.136490904427774,1.0430476698372109,,,,3,0,3,3
1788937739.9483056,3001449195.0,-9.62109375,0.9140625,-1.87109375,0.00390625,0.009765625,-0.00390625,36.6875,-6.9375,-19.875,36.6875,-6.9375,-19.875,0.00493431233042987,-0.7663519679017311,0.07909253351559192,0.6375144586572565,153.50077410465,77.93235547158955,-33.34980186674153,0.45184326171875,0.59625244140625,0.48602294921875,-0.4517822265625,151.48653189398183,77.94975555077289,55.136490904427774,1.0423335800498623,,,,3,0,3,3
