pc_unix,dev_us,ax,ay,az,gx,gy,gz,mx_raw,my_raw,mz_raw,mx,my,mz,host_qw,host_qx,host_qy,host_qz,host_roll,host_pitch,host_yaw,chip_qw,chip_qx,chip_qy,chip_qz,chip_roll,chip_pitch,chip_yaw,diff_deg,rel_roll,rel_pitch,rel_yaw,cal_acc,cal_gyr,cal_mag,cal_rv
1788945785.0477974,873256919.0,-7.88671875,-4.1328125,3.30078125,-0.0078125,-0.01171875,0.001953125,18.25,5.4375,-33.375,18.25,5.4375,-33.375,0.25771765450070383,-0.5598495204266343,-0.09588821595865915,0.7816364724582581,-51.02483447803405,55.66698440582396,115.2179523804576,0.367919921875,0.3314208984375,0.46099853515625,-0.73638916015625,-50.76507770826053,55.82549506304171,-155.12243815280905,2.5862609928818943,,,,2,0,3,3
1788945785.0517325,873259372.0,-7.84765625,-4.09375,3.30078125,-0.0078125,-0.01171875,0.001953125,17.6875,3.5625,-33.25,17.6875,3.5625,-33.25,0.2577072360605936,-0.5598850706872787,-0.09578541858748249,0.7816270476957226,-51.0180498339854,55.677144765001366,115.21722464146119,0.367919921875,0.3314208984375,0.46099853515625,-0.73638916015625,-50.76507770826053,55.82549506304171,-155.12243815280905,2.59884062926489,,,,2,0,3,3
1788945785.0526729,873267232.0,-7.84765625,-4.09375,3.30078125,-0.005859375,-0.015625,0.001953125,17.6875,3.5625,-33.25,17.6875,3.5625,-33.25,0.2576773846084012,-0.5599850426802763,-0.09545404764827733,0.7816058099984311,-50.99348964575704,55.70855500410957,115.21720115879602,0.36798095703125,0.33135986328125,0.46099853515625,-0.73638916015625,-50.75897408890089,55.822066229101466,-155.10891355354568,2.633829056213825,,,,2,0,3,3
1788945785.0586128,873267585.0,-7.84765625,-4.05859375,3.30078125,-0.001953125,-0.01953125,0.00390625,17.6875,3.5625,-33.25,17.6875,3.5625,-33.25,0.2576755381605156,-0.5599884919338588,-0.09543844503536514,0.7816058528085386,-50.99205017440462,55.709961808483996,115.21751813515216,0.36798095703125,0.33135986328125,0.46099853515625,-0.73638916015625,-50.75897408890089,55.822066229101466,-155.10891355354568,2.6356804126262348,,,,2,0,3,3
1788945785.0586128,873271538.0,-7.8046875,-4.05859375,3.30078125,-0.001953125,-0.01953125,0.00390625,17.6875,3.5625,-33.25,17.6875,3.5625,-33.25,0.25766100726828306,-0.5600232904256883,-0.09526290524029148,0.7816071253510029,-50.97546910742817,55.7251236744592,115.22091267488658,0.36798095703125,0.33135986328125,0.46099853515625,-0.73638916015625,-50.75897408890089,55.822066229101466,-155.10891355354568,2.6563459346490474,,,,2,0,3,3
1788945785.0640445,873274544.0,-7.765625,-4.09375,3.30078125,-0.001953125,-0.021484375,0.005859375,17.6875,3.5625,-33.25,17.6875,3.5625,-33.25,0.2576594371281376,-0.5600479410704683,-0.0951302404199008,0.7816061383581839,-50.96324153201453,55.73591892845073,115.22234629307832,0.3680419921875,0.331298828125,0.4609375,-0.73638916015625,-50.73818566898519,55.81405615503164,-155.0868166529794,2.7986787094595305,,,,2,0,3,3
1788945785.069705,873279304.0,-7.765625,-4.05859375,3.375,0.00390625,-0.01953125,0.00390625,18.5,5.6875,-31.5625,18.5,5.6875,-31.5625,0.2576241523192304,-0.5599634301109638,-0.09494253677767694,0.7817011371300294,-50.919653519192934,55.74382810274153,115.25321160912213,0.3680419921875,0.331298828125,0.4609375,-0.73638916015625,-50.73818566898519,55.81405615503164,-155.0868166529794,2.815878565406079,,,,2,0,3,3
1788945785.0730872,873282610.0,-7.73046875,-4.05859375,3.375,0.009765625,-0.017578125,0.005859375,18.5,5.6875,-31.5625,18.5,5.6875,-31.5625,0.25762082022311145,-0.5598863476865278,-0.09482181910857411,0.7817720980456854,-50.88835564133578,55.74604518126529,115.27456643734766,0.36810302734375,0.33123779296875,0.4609375,-0.7364501953125,-50.73572151337572,55.81475056971167,-155.07686851352602,2.604558578824351,,,,2,0,3,3
1788945785.0762134,873286993.0,-7.765625,-4.05859375,3.375,0.01171875,-0.01171875,0.001953125,18.5,5.6875,-31.5625,18.5,5.6875,-31.5625,0.2576036689941934,-0.5598164911932358,-0.0946339794470601,0.7818505329299439,-50.84891922725028,55.75404938223151,115.29972374669315,0.36810302734375,0.33123779296875,0.4609375,-0.7364501953125,-50.73572151337572,55.81475056971167,-155.07686851352602,2.6238907659392865,,,,2,0,3,3
1788945785.0801485,873290746.0,-7.73046875,-4.05859375,3.375,0.01171875,-0.01171875,0.001953125,16.75,4.375,-37.0625,16.75,4.375,-37.0625,0.2575822548020926,-0.5596802397256954,-0.09473593524120705,0.7819427816954587,-50.833206560631744,55.73793873200957,115.32537077481476,0.36810302734375,0.33123779296875,0.4609375,-0.7364501953125,-50.73572151337572,55.81475056971167,-155.07686851352602,2.607637616171375,,,,2,0,3,3
1788945785.0830846,873296229.0,-7.73046875,-4.01953125,3.375,0.015625,-0.01171875,0.0,16.75,4.375,-37.0625,16.75,4.375,-37.0625,0.25750560724819194,-0.559472304526543,-0.09479955391985717,0.7821091019033695,-50.79442491869378,55.72193059981158,115.37553429329517,0.36810302734375,0.3311767578125,0.4608154296875,-0.73651123046875,-50.70650629928726,55.80054412624726,-155.05809375074656,2.7480188603116185,,,,2,0,3,3
1788945785.0892043,873298635.0,-7.76953125,-4.05859375,3.33984375,0.015625,-0.015625,-0.001953125,16.75,4.375,-37.0625,16.75,4.375,-37.0625,0.2574549239770239,-0.5594244138656028,-0.09487798097086292,0.7821505328375121,-50.791484278305255,55.71589539361809,115.38927730135208,0.36810302734375,0.3311767578125,0.4608154296875,-0.73651123046875,-50.70650629928726,55.80054412624726,-155.05809375074656,2.738250890443251,,,,2,0,3,3
1788945785.0935094,873301941.0,-7.76953125,-4.05859375,3.33984375,0.01171875,-0.017578125,0.001953125,16.75,4.375,-37.0625,16.75,4.375,-37.0625,0.25737355633428444,-0.5593602339691932,-0.0949857491837182,0.782210130723056,-50.78698192389136,55.708393947122076,115.40965459268074,0.3681640625,0.3311767578125,0.46075439453125,-0.736572265625,-50.69284840722637,55.80581833364079,-155.04478900469488,2.525081861186077,,,,2,0,3,3
1788945785.096237,873306524.0,-7.76953125,-4.05859375,3.33984375,0.013671875,-0.013671875,0.00390625,16.75,4.375,-37.0625,16.75,4.375,-37.0625,0.25725546758010204,-0.559281269993298,-0.09512229338964034,0.7822888435450951,-50.780744675072334,55.69992285177187,115.43732543430487,0.3681640625,0.3311767578125,0.46075439453125,-0.736572265625,-50.69284840722637,55.80581833364079,-155.04478900469488,2.5071929786164895,,,,2,0,3,3
1788945785.100172,873309877.0,-7.76953125,-4.1328125,3.33984375,0.013671875,-0.013671875,0.00390625,21.25,6.25,-39.0,21.25,6.25,-39.0,0.25733801851081317,-0.5593490630028843,-0.09513287125728635,0.7822119321213838,-50.8013111452607,55.699808745990985,115.41060703520813,0.3681640625,0.3311767578125,0.46075439453125,-0.736572265625,-50.69284840722637,55.80581833364079,-155.04478900469488,2.5076094264048523,,,,2,0,2,3
1788945785.1026204,873316736.0,-7.765625,-4.1328125,3.30078125,0.009765625,-0.017578125,0.0,21.25,6.25,-39.0,21.25,6.25,-39.0,0.2573810448426023,-0.5595004784506796,-0.09517098980787207,0.7820848387919181,-50.83953658266916,55.70660639021884,115.37221600311774,0.3681640625,0.33111572265625,0.460693359375,-0.736572265625,-50.67469828298014,55.79207225514207,-155.03101816773565,2.7517439729268283,,,,2,0,2,3
1788945785.1075766,873318443.0,-7.8046875,-4.171875,3.33984375,0.021484375,-0.01953125,0.005859375,21.25,6.25,-39.0,21.25,6.25,-39.0,0.25741859595380095,-0.5595223094883754,-0.09519341539143611,0.7820541319551235,-50.84935910158932,55.704683671175864,115.36102980076426,0.3681640625,0.33111572265625,0.460693359375,-0.736572265625,-50.67469828298014,55.79207225514207,-155.03101816773565,2.7498356000232937,,,,2,0,2,3
1788945785.1132517,873325649.0,-7.8046875,-4.25,3.30078125,0.017578125,-0.0234375,0.017578125,21.25,6.25,-39.0,21.25,6.25,-39.0,0.2575146260089764,-0.5595786187881485,-0.09533865125425577,0.781964531397444,-50.885899938659314,55.69397895079146,115.32829255172392,0.36822509765625,0.33111572265625,0.4605712890625,-0.73663330078125,-50.64637141353671,55.79276096250391,-155.00914796626643,2.6748898072121645,,,,2,0,2,3
1788945785.1132517,873329608.0,-7.84765625,-4.28515625,3.30078125,0.029296875,-0.021484375,0.01953125,21.125,6.6875,-33.5,21.125,6.6875,-33.5,0.25757734597739335,-0.5596538591873406,-0.09529681675051936,0.7818951243313752,-50.89987128325253,55.699018947561655,115.30557852147474,0.36822509765625,0.33111572265625,0.4605712890625,-0.73663330078125,-50.64637141353671,55.79276096250391,-155.00914796626643,2.681753160574399,,,,2,0,3,3
1788945785.1132517,873333314.0,-7.8828125,-4.28515625,3.33984375,0.03515625,-0.025390625,0.021484375,21.125,6.6875,-33.5,21.125,6.6875,-33.5,0.2576506235519932,-0.5597177337835597,-0.09522561979203056,0.7818339312198526,-50.90849816523104,55.70452039196094,115.28481646504748,0.3682861328125,0.33111572265625,0.46038818359375,-0.7366943359375,-50.60337891700272,55.788865028666756,-154.97870537818218,2.7631677572896685,,,,2,0,3,3
1788945785.1289423,873337574.0,-7.88671875,-4.32421875,3.33984375,0.04296875,-0.029296875,0.02734375,18.5,5.6875,-31.5625,18.5,5.6875,-31.5625,0.25774316612042686,-0.5597344656768759,-0.09524394575866559,0.7817892165078516,-50.9204907306458,55.69933831161244,115.26629081084867,0.3682861328125,0.33111572265625,0.46038818359375,-0.7366943359375,-50.60337891700272,55.788865028666756,-154.97870537818218,2.7615313253640936,,,,2,0,3,3
1788945785.1305344,873342457.0,-7.92578125,-4.32421875,3.30078125,0.05859375,-0.02734375,0.0234375,18.5,5.6875,-31.5625,18.5,5.6875,-31.5625,0.25782752082313765,-0.5597800955405843,-0.09519759984761628,0.7817343737651695,-50.929408212355185,55.70114568190477,115.2462765671284,0.368408203125,0.3311767578125,0.46014404296875,-0.73681640625,-50.550201705397946,55.79939276699177,-154.94017683573063,2.5380008709743995,,,,2,0,3,3
1788945785.1285813,873346763.0,-7.8828125,-4.32421875,3.30078125,0.064453125,-0.037109375,0.0390625,18.5,5.6875,-31.5625,18.5,5.6875,-31.5625,0.2578989073174761,-0.5597903254167076,-0.09515543747347678,0.7817086336311884,-50.93087081813039,55.70067101230496,115.23509684882839,0.368408203125,0.3311767578125,0.46014404296875,-0.73681640625,-50.550201705397946,55.79939276699177,-154.94017683573063,2.543034449355035,,,,2,0,3,3
1788945785.1305344,873349416.0,-7.8828125,-4.28515625,3.33984375,0.064453125,-0.037109375,0.0390625,17.625,6.4375,-33.0,17.625,6.4375,-33.0,0.25790876844443916,-0.5597244393720574,-0.09519700946556135,0.7817474966496039,-50.92364528248695,55.69225090862455,115.24471593891178,0.368408203125,0.3311767578125,0.46014404296875,-0.73681640625,-50.550201705397946,55.79939276699177,-154.94017683573063,2.535659662197576,,,,2,0,3,3
1788945785.1427972,873357075.0,-7.88671875,-4.25,3.375,0.068359375,-0.03515625,0.041015625,17.625,6.4375,-33.0,17.625,6.4375,-33.0,0.2579297043123667,-0.559505683872051,-0.09530413054472589,0.781884121880805,-50.89491362833345,55.66700999945645,115.2798647957246,0.3685302734375,0.33123779296875,0.45977783203125,-0.7369384765625,-50.46769839268544,55.80074159233654,-154.88448783208156,2.5579876138196123,,,,2,0,3,3
1788945785.1472406,873357429.0,-7.84375,-4.171875,3.453125,0.080078125,-0.037109375,0.041015625,17.625,6.4375,-33.0,17.625,6.4375,-33.0,0.2579312519175328,-0.5594902357247216,-0.09530642597924693,0.7818943858220315,-50.89221298962052,55.66557242528361,115.28257547950092,0.3685302734375,0.33123779296875,0.45977783203125,-0.7369384765625,-50.46769839268544,55.80074159233654,-154.88448783208156,2.5571193802175367,,,,2,0,3,3
1788945785.1472406,873361182.0,-7.84765625,-4.1328125,3.4140625,0.080078125,-0.037109375,0.041015625,17.625,6.4375,-33.0,17.625,6.4375,-33.0,0.25792943476667546,-0.5593382747104364,-0.09533427663338746,0.782000304874419,-50.86518731053988,55.65204715459185,115.31162902785523,0.3685302734375,0.33123779296875,0.45977783203125,-0.7369384765625,-50.46769839268544,55.80074159233654,-154.88448783208156,2.548109049569718,,,,2,0,3,3
1788945785.1472406,873365564.0,-7.8046875,-4.09375,3.453125,0.080078125,-0.033203125,0.041015625,17.625,6.4375,-33.0,17.625,6.4375,-33.0,0.25792992490424327,-0.5591357153857746,-0.09534257814430896,0.7821439755004994,-50.82568820412394,55.635750280942666,115.35118479644697,0.36859130859375,0.331298828125,0.45941162109375,-0.73712158203125,-50.39148364029807,55.80048108920655,-154.84074315712078,2.465110263180141,,,,2,0,3,3
1788945785.1568224,873369147.0,-7.765625,-4.09375,3.453125,0.072265625,-0.03515625,0.044921875,17.0625,6.5625,-32.375,17.0625,6.5625,-32.375,0.2579231933673946,-0.5589805714115371,-0.09536672654639625,0.7822541368221851,-50.797276889064484,55.622484860448424,115.38173709260383,0.36859130859375,0.331298828125,0.45941162109375,-0.73712158203125,-50.39148364029807,55.80048108920655,-154.84074315712078,2.4562764144364384,,,,2,0,3,3
1788945785.1615968,873372654.0,-7.765625,-4.01953125,3.4140625,0.07421875,-0.03515625,0.0390625,17.0625,6.5625,-32.375,17.0625,6.5625,-32.375,0.25790141969083974,-0.5588312440648505,-0.09539029515292634,0.78236512573671,-50.768963591992886,55.61055558331954,115.41347709921772,0.36871337890625,0.3314208984375,0.458984375,-0.73724365234375,-50.29778494355517,55.80639106564113,-154.78162958422863,2.522472913684013,,,,2,0,3,3
1788945785.1596582,873376836.0,-7.76953125,-3.94140625,3.375,0.060546875,-0.037109375,0.046875,17.0625,6.5625,-32.375,17.0625,6.5625,-32.375,0.25780396055929883,-0.5586704173018,-0.09541750065940267,0.7825087752349394,-50.73372431833862,55.601773835858154,115.45903856482117,0.36871337890625,0.3314208984375,0.458984375,-0.73724365234375,-50.29778494355517,55.80639106564113,-154.78162958422863,2.513727933494231,,,,2,0,3,3
1788945785.1635933,873380589.0,-7.765625,-3.90234375,3.4140625,0.060546875,-0.037109375,0.046875,16.75,5.625,-32.5625,16.75,5.625,-32.5625,0.2576760189377366,-0.5584993853591311,-0.09531518745684503,0.7826854546099209,-50.67770235830521,55.60246609839364,115.51727617746066,0.36871337890625,0.3314208984375,0.458984375,-0.73724365234375,-50.29778494355517,55.80639106564113,-154.78162958422863,2.5190761263489687,,,,2,0,3,3
1788945785.1749198,873386372.0,-7.73046875,-3.98046875,3.60546875,0.056640625,-0.0390625,0.033203125,16.75,5.625,-32.5625,16.75,5.625,-32.5625,0.2576598735747973,-0.5581860680122012,-0.09521527158808045,0.7829264046402484,-50.60120772415491,55.585542467800174,115.58597873292095,0.368896484375,0.33148193359375,0.4586181640625,-0.73736572265625,-50.2126894304543,55.813408096491415,-154.71762947297597,2.4416131186476253,,,,2,0,3,3
1788945785.1793637,873388279.0,-7.73046875,-4.01953125,3.68359375,0.044921875,-0.041015625,0.029296875,16.75,5.625,-32.5625,16.75,5.625,-32.5625,0.25765878751156346,-0.5580839738066661,-0.0951951697502127,0.7830019840680225,-50.578193415104224,55.57895964501044,115.60712124501647,0.368896484375,0.33148193359375,0.4586181640625,-0.73736572265625,-50.2126894304543,55.813408096491415,-154.71762947297597,2.4402092213612354,,,,2,0,3,3
1788945785.1816902,873392761.0,-7.76953125,-4.01953125,3.56640625,0.0390625,-0.029296875,0.037109375,16.75,5.625,-32.5625,16.75,5.625,-32.5625,0.2576135330775392,-0.557868439448075,-0.0951682104830837,0.7831737250166944,-50.52872676887714,55.56645342416151,115.65768181945363,0.3690185546875,0.33148193359375,0.45831298828125,-0.73748779296875,-50.14149517310072,55.810110990375144,-154.66538131591537,2.4454590235218654,,,,2,0,3,3
1788945785.177755,873397344.0,-7.76953125,-3.94140625,3.4921875,0.046875,-0.01171875,0.033203125,16.75,5.625,-32.5625,16.75,5.625,-32.5625,0.25752720834294346,-0.5576835043336709,-0.09509389426342557,0.7833428350543733,-50.476481239155206,55.561757644753406,115.71077721038331,0.3690185546875,0.33148193359375,0.45831298828125,-0.73748779296875,-50.14149517310072,55.810110990375144,-154.66538131591537,2.4477201962698123,,,,2,0,3,3
1788945785.1816902,873399721.0,-7.8046875,-3.90234375,3.453125,0.046875,-0.01171875,0.033203125,21.3125,6.3125,-38.625,21.3125,6.3125,-38.625,0.257483772514843,-0.5576477256887233,-0.09493562860208242,0.7834017790046474,-50.445958099332294,55.57183464332426,115.73186650524778,0.3690185546875,0.33148193359375,0.45831298828125,-0.73748779296875,-50.14149517310072,55.810110990375144,-154.66538131591537,2.464252318785447,,,,2,0,2,3
1788945785.1928272,873406580.0,-7.84765625,-3.90234375,3.4921875,0.044921875,-0.01171875,0.029296875,21.3125,6.3125,-38.625,21.3125,6.3125,-38.625,0.2573702240522468,-0.5575298227224691,-0.09450086440450066,0.7835755554974585,-50.35855235791663,55.59762347909835,115.79279420937124,0.36907958984375,0.33160400390625,0.4581298828125,-0.737548828125,-50.10536130163861,55.824522313487094,-154.64526345615013,2.3561225803333294,,,,2,0,2,3
1788945785.1988475,873407733.0,-7.84765625,-3.90234375,3.4921875,0.044921875,-0.00390625,0.021484375,21.3125,6.3125,-38.625,21.3125,6.3125,-38.625,0.2573546486792384,-0.5575126931550656,-0.09442956064470076,0.783601454727223,-50.34485685387745,55.60185021544735,115.80188690795897,0.36907958984375,0.33160400390625,0.4581298828125,-0.737548828125,-50.10536130163861,55.824522313487094,-154.64526345615013,2.3639893817392963,,,,2,0,2,3
1788945785.203772,873411993.0,-7.88671875,-3.8671875,3.4921875,0.04296875,-0.001953125,0.013671875,21.3125,6.3125,-38.625,21.3125,6.3125,-38.625,0.2572982038238523,-0.5574651445451962,-0.0941717377095979,0.7836848414656096,-50.298172165299924,55.61826194738124,115.83198242581535,0.369140625,0.33172607421875,0.4578857421875,-0.73760986328125,-50.05457637631466,55.83433984053307,-154.6165176069355,2.3863470949748296,,,,2,0,2,3
1788945785.2027113,873417075.0,-7.921875,-3.8671875,3.453125,0.01953125,-0.0078125,0.00390625,21.3125,6.3125,-38.625,21.3125,6.3125,-38.625,0.25719736710755775,-0.557444294200036,-0.0939198273515361,0.7837629994118257,-50.25450157291627,55.63886716582958,115.86352061639322,0.369140625,0.33172607421875,0.4578857421875,-0.73760986328125,-50.05457637631466,55.83433984053307,-154.6165176069355,2.415573609566998,,,,2,0,2,3
1788945785.2071383,873419452.0,-7.953125,-3.90234375,3.4140625,0.01953125,-0.0078125,0.00390625,20.6875,5.8125,-38.75,20.6875,5.8125,-38.75,0.25714865124229785,-0.5574541074015821,-0.09380078020116328,0.7837862610042521,-50.23768939982993,55.65020735921286,115.87475067032027,0.369140625,0.33172607421875,0.4578857421875,-0.73760986328125,-50.05457637631466,55.83433984053307,-154.6165176069355,2.4300535467099746,,,,2,0,2,3
1788945785.213779,873424035.0,-7.95703125,-3.94140625,3.375,0.01953125,-0.005859375,-0.001953125,20.6875,5.8125,-38.75,20.6875,5.8125,-38.75,0.2570642349910511,-0.5575083127176726,-0.09359127306187245,0.7838004426802893,-50.2155221288946,55.67299382271595,115.88708854206067,0.369140625,0.33172607421875,0.457763671875,-0.7376708984375,-50.0289591112553,55.82927685804412,-154.60300092444416,2.507331205297963,,,,2,0,2,3
1788945785.2178442,873427341.0,-7.99609375,-3.98046875,3.4140625,0.013671875,-0.00390625,-0.01171875,20.6875,5.8125,-38.75,20.6875,5.8125,-38.75,0.25701071854329494,-0.557544427591715,-0.09345216301252315,0.7838089021206426,-50.20099392427848,55.68799028899304,115.89486888117173,0.369140625,0.33172607421875,0.457763671875,-0.7376708984375,-50.0289591112553,55.82927685804412,-154.60300092444416,2.5246282793734474,,,,2,0,2,3
1788945785.2217793,873431294.0,-7.95703125,-4.01953125,3.33984375,0.013671875,-0.00390625,-0.01171875,20.5625,6.8125,-32.875,20.5625,6.8125,-32.875,0.25695248440756385,-0.5576323625808597,-0.09334279474057376,0.7837784710167081,-50.20030978950795,55.705374897397114,115.89183904680712,0.369140625,0.33172607421875,0.457763671875,-0.7376708984375,-50.0289591112553,55.82927685804412,-154.60300092444416,2.5402825630373065,,,,2,0,3,3
1788945785.2228901,873436177.0,-7.953125,-4.05859375,3.4140625,0.0,-0.017578125,-0.013671875,20.5625,6.8125,-32.875,20.5625,6.8125,-32.875,0.2568471213832883,-0.5576911086001597,-0.09320171045806183,0.7837879973520484,-50.18646400306797,55.7251944995731,115.90337907899054,0.36907958984375,0.33172607421875,0.457763671875,-0.73773193359375,-50.03527366182327,55.82770739888678,-154.6150231992515,2.441834846522108,,,,2,0,3,3
1788945785.2288146,873438783.0,-7.953125,-4.09375,3.4140625,-0.0078125,-0.017578125,-0.015625,20.5625,6.8125,-32.875,20.5625,6.8125,-32.875,0.25679277847822074,-0.5577391007353811,-0.0931555482269366,0.7837771419650249,-50.18629780167394,55.735060421579504,115.90461512240155,0.36907958984375,0.33172607421875,0.457763671875,-0.73773193359375,-50.03527366182327,55.82770739888678,-154.6150231992515,2.449462232997816,,,,2,0,3,3
1788945785.2288146,873443366.0,-7.953125,-4.09375,3.53125,-0.01171875,-0.013671875,-0.01953125,20.5625,6.8125,-32.875,20.5625,6.8125,-32.875,0.2567688405164006,-0.5576195308249378,-0.09308980007832449,0.7838778670837805,-50.152302382504274,55.731307948196495,115.93489798842204,0.36907958984375,0.33160400390625,0.457763671875,-0.73773193359375,-50.02851912658603,55.80933917361881,-154.60472744209972,2.6731121257088537,,,,2,0,3,3
1788945785.2367418,873451025.0,-7.95703125,-4.09375,3.56640625,0.001953125,-0.0078125,-0.015625,17.0625,7.0625,-32.3125,17.0625,7.0625,-32.3125,0.2567772329638551,-0.5574361000175613,-0.09346429961054271,0.7839610141626611,-50.165009708818104,55.691769123358554,115.95197833816859,0.36907958984375,0.33160400390625,0.457763671875,-0.73773193359375,-50.02851912658603,55.80933917361881,-154.60472744209972,2.626689053823514,,,,2,0,3,3
1788945785.244929,873454732.0,-7.95703125,-4.1328125,3.56640625,-0.009765625,0.0,-0.01953125,17.0625,7.0625,-32.3125,17.0625,7.0625,-32.3125,0.2567821301320889,-0.5573671548755732,-0.09366603885186256,0.7839843528263412,-50.17782960579543,55.67280482638272,115.95526187740445,0.36907958984375,0.33148193359375,0.45782470703125,-0.73779296875,-50.04006004968712,55.799695792940774,-154.6067730401105,2.4502014531736687,,,,2,0,3,3
1788945785.2473183,873458591.0,-7.921875,-4.1328125,3.4921875,-0.0078125,0.005859375,-0.025390625,18.0,5.9375,-33.0,18.0,5.9375,-33.0,0.25679099145151174,-0.5572908346692743,-0.09386761331441765,0.7840115965173141,-50.18943693696186,55.653049307156586,115.95937652464656,0.36907958984375,0.33148193359375,0.45782470703125,-0.73779296875,-50.04006004968712,55.799695792940774,-154.6067730401105,2.424187403821039,,,,2,0,3,3
1788945785.2473183,873463474.0,-7.84765625,-4.171875,3.56640625,-0.013671875,0.0,-0.01171875,18.0,5.9375,-33.0,18.0,5.9375,-33.0,0.25683428935783165,-0.5571529400359195,-0.094067081514415,0.7840715103832998,-50.19090964024466,55.62664980683958,115.97025535616379,0.3690185546875,0.3314208984375,0.4578857421875,-0.73779296875,-50.05396146986224,55.78941169632824,-154.6185280103583,2.4860711630238477,,,,2,0,3,3
1788945785.252502,873466680.0,-7.84765625,-4.1328125,3.53125,-0.015625,0.0078125,-0.015625,18.0,5.9375,-33.0,18.0,5.9375,-33.0,0.2568514557641489,-0.5570710498013696,-0.09420286694430002,0.7841077700192187,-50.19345630426784,55.610314377356026,115.9772303402656,0.3690185546875,0.3314208984375,0.4578857421875,-0.73779296875,-50.05396146986224,55.78941169632824,-154.6185280103583,2.4680706847733327,,,,2,0,3,3
1788945785.256437,873470633.0,-7.84375,-4.09375,3.56640625,-0.015625,0.0078125,-0.015625,17.375,4.625,-32.875,17.375,4.625,-32.875,0.25687487245591567,-0.5570161939503536,-0.09412553481370166,0.784148355398297,-50.17414618633616,55.60975697815747,115.98791141483251,0.3690185546875,0.3314208984375,0.4578857421875,-0.73779296875,-50.05396146986224,55.78941169632824,-154.6185280103583,2.4749557443341073,,,,2,0,3,3
1788945785.2540457,873476016.0,-7.765625,-4.09375,3.53125,-0.021484375,0.009765625,-0.015625,17.375,4.625,-32.875,17.375,4.625,-32.875,0.2569280398473288,-0.5569387453001149,-0.09405814353360695,0.7841940333608478,-50.15368458297354,55.60509486668061,115.99789698845859,0.36895751953125,0.3314208984375,0.4580078125,-0.73773193359375,-50.08220604279356,55.78877239962865,-154.64031700121703,2.547946745950018,,,,2,0,3,3
1788945785.2605932,873478322.0,-7.76953125,-4.05859375,3.56640625,-0.025390625,0.009765625,-0.009765625,17.375,4.625,-32.875,17.375,4.625,-32.875,0.2569326625491101,-0.556906041737756,-0.09402685156990385,0.7842194965539055,-50.14345908012714,55.604311811660374,116.00502435932128,0.36895751953125,0.3314208984375,0.4580078125,-0.73773193359375,-50.08220604279356,55.78877239962865,-154.64031700121703,2.550489932093045,,,,2,0,3,3
1788945785.2671409,873483005.0,-7.765625,-4.01953125,3.53125,-0.0390625,0.0078125,-0.0078125,17.375,4.625,-32.875,17.375,4.625,-32.875,0.2568986205003384,-0.5568641494106896,-0.09395482243992068,0.7842690286033328,-50.12348135694854,55.60764578895539,116.02188166369817,0.36895751953125,0.33135986328125,0.4581298828125,-0.7376708984375,-50.10442874785028,55.78465290791126,-154.64866722730832,2.617827681671496,,,,2,0,3,3
1788945785.27282,873486511.0,-7.765625,-4.05859375,3.53125,-0.0390625,0.021484375,-0.0078125,17.375,4.625,-32.875,17.375,4.625,-32.875,0.2568916119814886,-0.5568446854568434,-0.0939076497990527,0.784290793826652,-50.113022243749874,55.60959978654496,116.02898248187014,0.36895751953125,0.33135986328125,0.4581298828125,-0.7376708984375,-50.10442874785028,55.78465290791126,-154.64866722730832,2.622562559157382,,,,2,0,3,3
1788945785.276755,873489964.0,-7.80859375,-4.01953125,3.60546875,-0.0390625,0.021484375,-0.0078125,16.625,5.25,-37.6875,16.625,5.25,-37.6875,0.25684140896203517,-0.5567831310937517,-0.09405810379097806,0.7843329067960112,-50.11692577253325,55.597681051139965,116.04177590616057,0.36895751953125,0.33135986328125,0.4581298828125,-0.7376708984375,-50.10442874785028,55.78465290791126,-154.64866722730832,2.6051161940433127,,,,2,0,3,3
1788945785.276755,873494447.0,-7.84375,-3.98046875,3.53125,-0.048828125,0.02734375,-0.015625,16.625,5.25,-37.6875,16.625,5.25,-37.6875,0.2567315738424286,-0.5567350317108646,-0.09428560615567745,0.7843756931025774,-50.129426276660865,55.58511218639576,116.05762734710169,0.36895751953125,0.331298828125,0.4583740234375,-0.737548828125,-50.15226283036217,55.78559277570219,-154.67052218289413,2.5917509680456243,,,,2,0,3,3
1788945785.2834768,873497854.0,-7.84375,-3.98046875,3.53125,-0.0625,0.03125,-0.025390625,16.625,5.25,-37.6875,16.625,5.25,-37.6875,0.25664725744377803,-0.5567074919490045,-0.09448181110968644,0.7843992229878034,-50.14368624106021,55.574791873814775,116.0669497695536,0.36895751953125,0.331298828125,0.4583740234375,-0.737548828125,-50.15226283036217,55.78559277570219,-154.67052218289413,2.570522897930189,,,,2,0,3,3
1788945785.290508,873505913.0,-7.84765625,-4.01953125,3.4921875,-0.06640625,0.03125,-0.02734375,19.9375,5.3125,-39.25,19.9375,5.3125,-39.25,0.2565046449306772,-0.5568023300659926,-0.0943923606789546,0.7843893259138109,-50.14109878799567,55.59614162571386,116.07487887953086,0.36895751953125,0.33123779296875,0.45867919921875,-0.7374267578125,-50.214749194943245,55.79112539731532,-154.70098706061538,2.453824416989321,,,,2,0,2,3
1788945785.2925045,873509496.0,-7.921875,-4.05859375,3.4921875,-0.072265625,0.037109375,-0.029296875,21.0,4.875,-38.8125,21.0,4.875,-38.8125,0.25646884578267626,-0.5569114731142372,-0.09433601151235438,0.784330325302148,-50.152950122860055,55.61045919358472,116.0618074582805,0.36895751953125,0.33123779296875,0.45867919921875,-0.7374267578125,-50.214749194943245,55.79112539731532,-154.70098706061538,2.4635186319640887,,,,2,0,2,3
1788945785.2925045,873513979.0,-7.921875,-4.09375,3.4140625,-0.080078125,0.04296875,-0.03515625,21.0,4.875,-38.8125,21.0,4.875,-38.8125,0.25642718746753673,-0.5571069522157598,-0.09428986136246495,0.7842106626185359,-50.182858630252674,55.631243823564844,116.03229242996557,0.36883544921875,0.3311767578125,0.45904541015625,-0.73724365234375,-50.293519932184175,55.785710450568764,-154.75296476734377,2.6674588785348416,,,,2,0,2,3
1788945785.3083792,873518238.0,-7.921875,-4.09375,3.4140625,-0.083984375,0.04296875,-0.041015625,20.625,6.3125,-38.6875,20.625,6.3125,-38.6875,0.25627511971948985,-0.5572987087299722,-0.09447457603966683,0.7841018854350446,-50.234497152818534,55.64276660452663,116.00985525168458,0.36883544921875,0.3311767578125,0.45904541015625,-0.73724365234375,-50.293519932184175,55.785710450568764,-154.75296476734377,2.653558654293726,,,,2,0,2,3
1788945785.3144722,873521944.0,-7.921875,-4.1328125,3.453125,-0.091796875,0.04296875,-0.037109375,20.625,6.3125,-38.6875,20.625,6.3125,-38.6875,0.2561460265661954,-0.5573747334522999,-0.09475783654593968,0.784055847498417,-50.27754956955392,55.6374045614036,116.001828789458,0.3687744140625,0.33111572265625,0.45947265625,-0.737060546875,-50.38433813236218,55.79058402062459,-154.80526917694857,2.5637394017080815,,,,2,0,2,3
1788945785.3124902,873527427.0,-7.88671875,-4.09375,3.4140625,-0.08203125,0.044921875,-0.037109375,20.625,6.3125,-38.6875,20.625,6.3125,-38.6875,0.2559167689763871,-0.5575923044524452,-0.09499775024632605,0.78394697321964,-50.33626951108385,55.65166061930761,115.98371553563418,0.3687744140625,0.33111572265625,0.45947265625,-0.737060546875,-50.38433813236218,55.79058402062459,-154.80526917694857,2.5450711245715056,,,,2,0,2,3
1788945785.3164253,873529680.0,-7.921875,-4.09375,3.453125,-0.08203125,0.044921875,-0.037109375,21.9375,7.375,-31.9375,21.9375,7.375,-31.9375,0.25587959110317265,-0.5576726734195417,-0.09497410352439957,0.7839048053416378,-50.34663969237638,55.66162816069016,115.97487057823793,0.3687744140625,0.33111572265625,0.45947265625,-0.737060546875,-50.38433813236218,55.79058402062459,-154.80526917694857,2.5503105062187474,,,,2,0,2,3
1788945785.3203177,873536563.0,-7.88671875,-4.09375,3.53125,-0.091796875,0.04296875,-0.03125,21.9375,7.375,-31.9375,21.9375,7.375,-31.9375,0.25578114565781895,-0.557795212632364,-0.0949714199846146,0.7838500721926963,-50.363945429533956,55.67698212375991,115.9663128295087,0.36871337890625,0.33099365234375,0.4599609375,-0.73681640625,-50.482787639239874,55.78675435607642,-154.8573651390709,2.687114028642846,,,,2,0,2,3
1788945785.3222997,873537116.0,-7.84375,-4.09375,3.56640625,-0.09375,0.0546875,-0.044921875,21.9375,7.375,-31.9375,21.9375,7.375,-31.9375,0.2557787038152234,-0.5578032757689907,-0.09497743561963323,0.7838444022502846,-50.36616439221074,55.677358261838,115.96483015182895,0.36871337890625,0.33099365234375,0.4599609375,-0.73681640625,-50.482787639239874,55.78675435607642,-154.8573651390709,2.686676238152426,,,,2,0,2,3
1788945785.3242528,873541846.0,-7.84375,-4.09375,3.60546875,-0.09375,0.0546875,-0.044921875,21.9375,7.375,-31.9375,21.9375,7.375,-31.9375,0.2557619706260239,-0.5578596513589075,-0.09504652289904636,0.7838013665795768,-50.38521291591007,55.67819175692433,115.95314245016797,0.36871337890625,0.33099365234375,0.4599609375,-0.73681640625,-50.482787639239874,55.78675435607642,-154.8573651390709,2.680677774819879,,,,2,0,2,3
1788945785.3353512,873545252.0,-7.76953125,-4.09375,3.56640625,-0.099609375,0.0546875,-0.05078125,21.9375,7.375,-31.9375,21.9375,7.375,-31.9375,0.2557634843216049,-0.5578980383080897,-0.0951188136723174,0.7837647799086332,-50.40234331075092,55.67637141179448,115.94198981315427,0.36859130859375,0.3309326171875,0.46051025390625,-0.73663330078125,-50.60564740108668,55.79506180417513,-154.93517852271293,2.4443604646762394,,,,2,0,2,3
1788945785.3401282,873548835.0,-7.76953125,-4.09375,3.56640625,-0.099609375,0.06640625,-0.05078125,18.125,4.625,-32.4375,18.125,4.625,-32.4375,0.25577363061350356,-0.5579822203300329,-0.09515790094399668,0.7836967944085812,-50.42487238942415,55.67984296792602,115.92206091976834,0.36859130859375,0.3309326171875,0.46051025390625,-0.73663330078125,-50.60564740108668,55.79506180417513,-154.93517852271293,2.441441297104177,,,,2,0,3,3
1788945785.338175,873553318.0,-7.7265625,-4.09375,3.56640625,-0.10546875,0.06640625,-0.0546875,18.125,4.625,-32.4375,18.125,4.625,-32.4375,0.2557937932316096,-0.5580810399404643,-0.09523513590671948,0.7836104625973183,-50.45595749347153,55.68138553007632,115.89590729932115,0.368408203125,0.33087158203125,0.4610595703125,-0.73638916015625,-50.727549677827305,55.79349448340615,-155.01770161076053,2.5533110728140174,,,,2,0,3,3
1788945785.3361351,873557500.0,-7.6875,-4.09375,3.60546875,-0.111328125,0.078125,-0.044921875,18.125,4.625,-32.4375,18.125,4.625,-32.4375,0.25579636625429536,-0.5581825537990548,-0.09532043936198381,0.7835269424118753,-50.48743324253271,55.68359339309015,115.87157892400998,0.368408203125,0.33087158203125,0.4610595703125,-0.73638916015625,-50.727549677827305,55.79349448340615,-155.01770161076053,2.5453638882301197,,,,2,0,3,3
1788945785.3401282,873560277.0,-7.61328125,-4.09375,3.60546875,-0.111328125,0.078125,-0.044921875,17.125,3.6875,-32.6875,17.125,3.6875,-32.6875,0.25580540786064765,-0.558254529674234,-0.09537515735647932,0.7834660508067177,-50.50949866632029,55.685126631967776,115.85347118398893,0.368408203125,0.33087158203125,0.4610595703125,-0.73638916015625,-50.727549677827305,55.79349448340615,-155.01770161076053,2.540364162259092,,,,2,0,3,3
1788945785.354283,873566836.0,-7.5703125,-4.1328125,3.60546875,-0.12890625,0.08203125,-0.05078125,17.125,3.6875,-32.6875,17.125,3.6875,-32.6875,0.25583315401763984,-0.5584365784043082,-0.09558742744850993,0.7833013653245164,-50.575232065989745,55.68384820233797,115.8034500441341,0.3682861328125,0.330810546875,0.46173095703125,-0.736083984375,-50.87267242044578,55.802684408257406,-155.1055491245114,2.465225794542108,,,,2,0,3,3
1788945785.3562362,873568943.0,-7.5390625,-4.2109375,3.72265625,-0.126953125,0.091796875,-0.04296875,17.125,3.6875,-32.6875,17.125,3.6875,-32.6875,0.2558409755643928,-0.5584945293293092,-0.09566564665756237,0.7832479428514852,-50.597470227367594,55.68279075081567,115.78718522254172,0.3682861328125,0.330810546875,0.46173095703125,-0.736083984375,-50.87267242044578,55.802684408257406,-155.1055491245114,2.45671347866705,,,,2,0,3,3
1788945785.3646333,873572449.0,-7.5390625,-4.2109375,3.72265625,-0.1328125,0.111328125,-0.02734375,17.125,3.6875,-32.6875,17.125,3.6875,-32.6875,0.2558297340415575,-0.5586231022231708,-0.09577930345888598,0.7831460284466221,-50.63710943969414,55.685996534339765,115.75833095964394,0.3681640625,0.330810546875,0.46246337890625,-0.73565673828125,-51.028914971018004,55.817356634654224,-155.2002111042844,2.6040259133001884,,,,2,0,3,3
1788945785.3668566,873577232.0,-7.61328125,-4.2109375,3.56640625,-0.130859375,0.12890625,-0.017578125,17.125,3.6875,-32.6875,17.125,3.6875,-32.6875,0.25581808465329303,-0.5588617573173734,-0.09586918152578973,0.7829685458599426,-50.695663285982775,55.69938179226602,115.70894035786732,0.3681640625,0.330810546875,0.46246337890625,-0.73565673828125,-51.028914971018004,55.817356634654224,-155.2002111042844,2.5979709293941418,,,,2,0,3,3
1788945785.3707917,873580385.0,-7.65234375,-4.171875,3.453125,-0.130859375,0.12890625,-0.017578125,18.4375,4.625,-32.375,18.4375,4.625,-32.375,0.2558058433339903,-0.5590467909861183,-0.09589304904336504,0.7828375177196583,-50.73494845994906,55.71294573837577,115.67323758769324,0.3681640625,0.330810546875,0.46246337890625,-0.73565673828125,-51.028914971018004,55.817356634654224,-155.2002111042844,2.5990549081070626,,,,2,0,3,3
1788945785.3731844,873586368.0,-7.7265625,-4.171875,3.4140625,-0.13671875,0.134765625,-0.01171875,18.4375,4.625,-32.375,18.4375,4.625,-32.375,0.2557381074192821,-0.5594770201335149,-0.09588718850402558,0.7825529575925962,-50.81582323748215,55.75071551202858,115.59903372066688,0.3680419921875,0.3309326171875,0.46319580078125,-0.73516845703125,-51.188873662581564,55.84619151476204,-155.30207958610137,2.7650387063231183,,,,2,0,3,3
1788945785.3701534,873588474.0,-7.765625,-4.25,3.4140625,-0.126953125,0.146484375,-0.013671875,18.4375,4.625,-32.375,18.4375,4.625,-32.375,0.2557408370117214,-0.559638623002539,-0.09588600795434502,0.7824366488137845,-50.84830023657004,55.76322173811129,115.56668173406402,0.3680419921875,0.3309326171875,0.46319580078125,-0.73516845703125,-51.188873662581564,55.84619151476204,-155.30207958610137,2.7681921001587786,,,,2,0,3,3
1788945785.3771195,873592457.0,-7.84765625,-4.2109375,3.375,-0.12890625,0.150390625,-0.009765625,18.4375,4.625,-32.375,18.4375,4.625,-32.375,0.2556862549933883,-0.5599977539599568,-0.09584639140164458,0.7822023547794666,-50.91167128912412,55.79687476977925,115.50582223070485,0.367919921875,0.3311767578125,0.46392822265625,-0.73468017578125,-51.35635825365687,55.89331008246336,-155.4148117835983,2.725171182812436,,,,2,0,3,3
1788945785.3862617,873596763.0,-7.88671875,-4.2109375,3.30078125,-0.138671875,0.154296875,-0.009765625,18.4375,4.625,-32.375,18.4375,4.625,-32.375,0.2555915698754978,-0.5604434468056383,-0.09583789362022341,0.7819150788209888,-50.99394630202638,55.83743557525125,115.43238982187627,0.367919921875,0.3311767578125,0.46392822265625,-0.73468017578125,-51.35635825365687,55.89331008246336,-155.4148117835983,2.735670776004026,,,,2,0,3,3
1788945785.3902547,873599616.0,-7.95703125,-4.171875,3.18359375,-0.138671875,0.154296875,-0.009765625,21.375,6.375,-38.25,21.375,6.375,-38.25,0.25548990157561763,-0.5607553502325816,-0.09592885949205786,0.7817135033341622,-51.06177764891359,55.86139010400327,115.38187729423353,0.367919921875,0.3311767578125,0.46392822265625,-0.73468017578125,-51.35635825365687,55.89331008246336,-155.4148117835983,2.7330012358392963,,,,2,0,3,3
1788945785.382338,873607075.0,-8.03125,-4.25,3.22265625,-0.142578125,0.14453125,-0.013671875,21.375,6.375,-38.25,21.375,6.375,-38.25,0.2552490219513578,-0.5615419936595482,-0.09623111725496901,0.7811901805716681,-51.24376916288019,55.915951278255605,115.24822875802373,0.36773681640625,0.33148193359375,0.4647216796875,-0.734130859375,-51.541712746011065,55.94421949437049,-155.54674296694384,2.7444711726090585,,,,2,0,3,3
1788945785.3882756,873607929.0,-8.07421875,-4.28515625,3.22265625,-0.1484375,0.138671875,-0.0078125,21.375,6.375,-38.25,21.375,6.375,-38.25,0.255218654534096,-0.5616308536304043,-0.09626792440837456,0.7811316850303108,-51.26449668937056,55.92210494914955,115.2334573054854,0.36773681640625,0.33148193359375,0.4647216796875,-0.734130859375,-51.541712746011065,55.94421949437049,-155.54674296694384,2.742608173915793,,,,2,0,3,3
1788945785.3902547,873611182.0,-8.03515625,-4.28515625,3.18359375,-0.1484375,0.138671875,-0.0078125,21.375,6.375,-38.25,21.375,6.375,-38.25,0.25510747802456635,-0.5619673843387146,-0.09641791692307426,0.7809074329852828,-51.344697124626784,55.94446261823053,115.17635427744693,0.36773681640625,0.33148193359375,0.4647216796875,-0.734130859375,-51.541712746011065,55.94421949437049,-155.54674296694384,2.7348718255891065,,,,2,0,3,3
1788945785.4042256,873615864.0,-8.109375,-4.25,3.0703125,-0.138671875,0.138671875,-0.01171875,21.375,6.375,-38.25,21.375,6.375,-38.25,0.2549414758070357,-0.562447180259924,-0.09659451441695029,0.7805943332586681,-51.45392365722665,55.9791746275623,115.09761515702785,0.36761474609375,0.3316650390625,0.46551513671875,-0.73358154296875,-51.71779137315788,55.9825431833195,-155.66026880504353,2.843411099630245,,,,2,0,3,3
1788945785.4042256,873619447.0,-8.109375,-4.25,3.0703125,-0.140625,0.130859375,-0.0078125,20.375,6.375,-38.375,20.375,6.375,-38.375,0.2548017529440211,-0.5627913345987559,-0.09677573989195377,0.7803694231359721,-51.53805743428902,56.001585047799054,115.04167145279426,0.36761474609375,0.3316650390625,0.46551513671875,-0.73358154296875,-51.71779137315788,55.9825431833195,-155.66026880504353,2.833164024104079,,,,2,0,3,3
1788945785.4042256,873624030.0,-8.11328125,-4.25,3.03125,-0.142578125,0.125,-0.009765625,20.375,6.375,-38.375,20.375,6.375,-38.375,0.25462269601325743,-0.5632230444431863,-0.09701320261882762,0.7800868691374874,-51.64481534500506,56.02918221340384,114.97143771008825,0.36749267578125,0.3319091796875,0.46630859375,-0.7330322265625,-51.89805272502743,56.02999836970947,-155.77956841520157,2.8278190684439877,,,,2,0,3,3
1788945785.4163306,873627136.0,-8.15234375,-4.2109375,3.03125,-0.126953125,0.111328125,-0.00390625,20.375,6.375,-38.375,20.375,6.375,-38.375,0.25449599305373716,-0.5634961339196718,-0.0971405053462207,0.7799151356386514,-51.7085833943289,56.0489067705385,114.93004297836902,0.36749267578125,0.3319091796875,0.46630859375,-0.7330322265625,-51.89805272502743,56.02999836970947,-155.77956841520157,2.821695222328978,,,,2,0,3,3
1788945785.4203236,873630989.0,-8.0703125,-4.2109375,2.9921875,-0.126953125,0.111328125,-0.00390625,22.625,8.3125,-31.75,22.625,8.3125,-31.75,0.254349104229344,-0.5638429880794518,-0.09727682247399914,0.7796953493389118,-51.787367297161225,56.0748071962013,114.87633994426231,0.36749267578125,0.3319091796875,0.46630859375,-0.7330322265625,-51.89805272502743,56.02999836970947,-155.77956841520157,2.8174685834600677,,,,2,0,3,3
1788945785.4183705,873636172.0,-8.0703125,-4.2109375,2.9921875,-0.12109375,0.1015625,-0.00390625,22.625,8.3125,-31.75,22.625,8.3125,-31.75,0.25415705428903695,-0.5642858864957768,-0.0974535868195825,0.7794154402324813,-51.88819583110378,56.10790539465284,114.80814418835003,0.367431640625,0.33203125,0.46697998046875,-0.7325439453125,-52.0426968319468,56.05986670515986,-155.86643282712308,2.956595252974635,,,,2,0,3,3
1788945785.4203236,873639055.0,-8.03125,-4.171875,3.03125,-0.115234375,0.091796875,-0.001953125,22.625,8.3125,-31.75,22.625,8.3125,-31.75,0.25404622911444336,-0.5645198449317428,-0.09753760679124311,0.7792716300574594,-51.939703639334624,56.12653257266541,114.77391360063011,0.367431640625,0.33203125,0.46697998046875,-0.7325439453125,-52.0426968319468,56.05986670515986,-155.86643282712308,2.9550463621531016,,,,2,0,3,3
1788945785.4203236,873642961.0,-7.99609375,-4.171875,2.9921875,-0.103515625,0.08203125,-0.0078125,22.625,8.3125,-31.75,22.625,8.3125,-31.75,0.2539212360903857,-0.5648145999730451,-0.09765385848432298,0.7790842043340012,-52.00700652125051,56.14843614177743,114.72795795722351,0.367431640625,0.3321533203125,0.46759033203125,-0.73211669921875,-52.17381565558039,56.09513775933836,-155.93991879825168,2.9146650711460134,,,,2,0,3,3
1788945785.4340076,873647144.0,-7.921875,-4.171875,2.95703125,-0.091796875,0.07421875,-0.00390625,22.625,8.3125,-31.75,22.625,8.3125,-31.75,0.25380272002141213,-0.5651107989532367,-0.09777346893381425,0.7788930048400844,-52.07556912807615,56.16982217724627,114.68045502367777,0.367431640625,0.3321533203125,0.46759033203125,-0.73211669921875,-52.17381565558039,56.09513775933836,-155.93991879825168,2.9109909467066104,,,,2,0,3,3
1788945785.4379427,873651097.0,-7.8828125,-4.171875,2.9921875,-0.091796875,0.07421875,-0.00390625,18.75,5.125,-32.3125,18.75,5.125,-32.3125,0.25370576793459043,-0.5654007060838008,-0.09780339475702908,0.7787104216913115,-52.1328339735961,56.1954483452816,114.63491149370455,0.367431640625,0.3321533203125,0.46759033203125,-0.73211669921875,-52.17381565558039,56.09513775933836,-155.93991879825168,2.917261585864198,,,,2,0,3,3
1788945785.4480875,873656680.0,-7.8046875,-4.171875,2.91796875,-0.091796875,0.05859375,-0.005859375,18.75,5.125,-32.3125,18.75,5.125,-32.3125,0.2535795726617715,-0.5657776358728984,-0.09789556915952853,0.7784661358168891,-52.21427203578214,56.22517590294449,114.57313599788519,0.367431640625,0.33221435546875,0.46807861328125,-0.7318115234375,-52.27880812091253,56.120354442768196,-155.99761407297717,2.823568051441896,,,,2,0,3,3
1788945785.4449914,873661963.0,-7.73046875,-4.171875,2.87890625,-0.080078125,0.0390625,0.00390625,18.75,5.125,-32.3125,18.75,5.125,-32.3125,0.2534641526639082,-0.566088545357521,-0.09797698748473582,0.7782674296492105,-52.2814914749902,56.24996223075497,114.5235661116934,0.367431640625,0.33221435546875,0.46807861328125,-0.7318115234375,-52.27880812091253,56.120354442768196,-155.99761407297717,2.825693236854366,,,,2,0,3,3
1788945785.4520226,873662316.0,-7.73046875,-4.171875,2.91796875,-0.064453125,0.033203125,0.001953125,18.75,5.125,-32.3125,18.75,5.125,-32.3125,0.25345859019872163,-0.5661078465117265,-0.0979798882130887,0.7782548365915132,-52.285498928167,56.251550915025234,114.52033578662602,0.36749267578125,0.33221435546875,0.46844482421875,-0.7315673828125,-52.351370409847995,56.13722301687825,-156.02773098148816,2.773268226396731,,,,2,0,3,3
1788945785.4500694,873666146.0,-7.7265625,-4.171875,2.9921875,-0.064453125,0.033203125,0.001953125,18.75,5.125,-32.3125,18.75,5.125,-32.3125,0.2534102342818549,-0.56631698427341,-0.09798986694542086,0.7781171585697777,-52.32699265648579,56.269500882262705,114.48444367979086,0.36749267578125,0.33221435546875,0.46844482421875,-0.7315673828125,-52.351370409847995,56.13722301687825,-156.02773098148816,2.779513990381351,,,,2,0,3,3
1788945785.4520226,873670429.0,-7.73046875,-4.25,3.109375,-0.048828125,0.033203125,-0.001953125,19.3125,7.4375,-32.25,19.3125,7.4375,-32.25,0.25339625646985237,-0.5663863679651617,-0.0982548360768234,0.7780377925125576,-52.37454735073833,56.25779443686443,114.4602548740583,0.36749267578125,0.33221435546875,0.46844482421875,-0.7315673828125,-52.351370409847995,56.13722301687825,-156.02773098148816,2.7515391506312468,,,,2,0,3,3
1788945785.46282,873674611.0,-7.69140625,-4.28515625,3.1484375,-0.037109375,0.03125,0.001953125,19.3125,7.4375,-32.25,19.3125,7.4375,-32.25,0.25340524239927326,-0.5664238623358382,-0.09849293473074099,0.7779774631113956,-52.41354854704719,56.244135941661725,114.44030443977388,0.36749267578125,0.33221435546875,0.46868896484375,-0.73138427734375,-52.40028694025923,56.14316474141124,-156.0523540688073,2.830070759823243,,,,2,0,3,3
1788945785.4683886,873678318.0,-7.7265625,-4.32421875,3.109375,-0.03515625,0.03125,0.00390625,19.3125,7.4375,-32.25,19.3125,7.4375,-32.25,0.25340932089644586,-0.566476188469561,-0.09869598196316566,0.7779123004067533,-52.450789972679246,56.23422584886936,114.41967612527515,0.36749267578125,0.33221435546875,0.46868896484375,-0.73138427734375,-52.40028694025923,56.14316474141124,-156.0523540688073,2.8091238645950765,,,,2,0,3,3
1788945785.4747727,873685877.0,-7.6875,-4.32421875,3.109375,-0.02734375,0.037109375,0.0078125,18.8125,6.625,-31.4375,18.8125,6.625,-31.4375,0.25347506667999187,-0.5666113529606998,-0.09905540937316056,0.7777467397177147,-52.52946298855641,56.216445951836434,114.36541533133192,0.36749267578125,0.332275390625,0.4688720703125,-0.731201171875,-52.438104086333,56.153674380397376,-156.0738021362844,2.9039636947201237,,,,2,0,3,3
1788945785.4767258,873690360.0,-7.73046875,-4.32421875,3.0703125,-0.01953125,0.033203125,0.021484375,18.8125,6.625,-31.4375,18.8125,6.625,-31.4375,0.2534834394884742,-0.5667144012780262,-0.09922692495042597,0.7776470604677059,-52.57347510332429,56.21219068111511,114.33516094580726,0.36749267578125,0.332275390625,0.4688720703125,-0.731201171875,-52.438104086333,56.153674380397376,-156.0738021362844,2.889016015306759,,,,2,0,3,3
1788945785.4842136,873693866.0,-7.7265625,-4.32421875,3.1484375,-0.021484375,0.02734375,0.02734375,18.8125,6.625,-31.4375,18.8125,6.625,-31.4375,0.25349577437439763,-0.5667503878664496,-0.09937315166459285,0.777598139758448,-52.6005454479031,56.20435460460207,114.31923042434163,0.3675537109375,0.3323974609375,0.468994140625,-0.7310791015625,-52.46586893781153,56.17881752341048,-156.0869076509684,2.722459408770544,,,,2,0,3,3
1788945785.4842136,873697449.0,-7.765625,-4.36328125,3.18359375,-0.013671875,0.017578125,0.033203125,21.75,5.4375,-38.0,21.75,5.4375,-38.0,0.25355655162809315,-0.5668384649412397,-0.09925609803315497,0.7775290713489508,-52.6079404187399,56.21527036236674,114.29705766455304,0.3675537109375,0.3323974609375,0.468994140625,-0.7310791015625,-52.46586893781153,56.17881752341048,-156.0869076509684,2.738109560651021,,,,2,0,3,3
1788945785.4842136,873702232.0,-7.8046875,-4.36328125,3.1484375,-0.009765625,0.0234375,0.04296875,21.75,5.4375,-38.0,21.75,5.4375,-38.0,0.2536014670119335,-0.567006159920812,-0.09907342830963775,0.7774154399960325,-52.62247317887253,56.23749661582721,114.26390131033642,0.36767578125,0.33251953125,0.468994140625,-0.73095703125,-52.461218002657354,56.200626589604234,-156.07443311655723,2.7680629998115696,,,,2,0,3,3
1788945785.4822605,873706185.0,-7.76953125,-4.44140625,3.18359375,-0.009765625,0.0234375,0.04296875,21.75,5.4375,-38.0,21.75,5.4375,-38.0,0.25368919890804276,-0.5671062247707173,-0.09898766778850034,0.7773247466853822,-52.6382229938223,56.245626359129645,114.23364763942449,0.36767578125,0.33251953125,0.468994140625,-0.73095703125,-52.461218002657354,56.200626589604234,-156.07443311655723,2.780568158656605,,,,2,0,3,3
1788945785.5000138,873709768.0,-7.73046875,-4.28515625,3.03125,-0.01171875,0.021484375,0.048828125,22.5625,8.625,-38.25,22.5625,8.625,-38.25,0.2536380009400616,-0.5671618231238523,-0.09910187946367767,0.7772863361443605,-52.6610343806272,56.24511748182116,114.22491697290897,0.36767578125,0.33251953125,0.468994140625,-0.73095703125,-52.461218002657354,56.200626589604234,-156.07443311655723,2.7702555758066674,,,,2,0,2,3
1788945785.5000138,873713074.0,-7.80859375,-4.2109375,3.0703125,0.005859375,0.017578125,0.056640625,22.5625,8.625,-38.25,22.5625,8.625,-38.25,0.2535756958197014,-0.5672016944375782,-0.09917818598595537,0.7772678378404897,-52.67496593048283,56.246628010591486,114.22285228850885,0.3677978515625,0.33270263671875,0.468994140625,-0.7308349609375,-52.46038040393553,56.23163694112424,-156.06734424723498,2.6631613715648084,,,,2,0,2,3
1788945785.4980607,873717657.0,-7.921875,-4.2109375,3.109375,0.01953125,0.013671875,0.05078125,22.5625,8.625,-38.25,22.5625,8.625,-38.25,0.2534920993188047,-0.5672461771153907,-0.09926182734343773,0.7772519667156602,-52.689378687509745,56.2492392463413,114.22278428432682,0.3677978515625,0.33270263671875,0.468994140625,-0.7308349609375,-52.46038040393553,56.23163694112424,-156.06734424723498,2.6558355894537105,,,,2,0,2,3
1788945785.5000138,873724939.0,-7.99609375,-4.1328125,3.26171875,0.029296875,0.015625,0.05078125,21.375,6.3125,-38.3125,21.375,6.3125,-38.3125,0.2533263179780357,-0.5672848610440232,-0.09873212157564874,0.7773452458329734,-52.61843181815302,56.29745644567131,114.26439390731421,0.367919921875,0.3328857421875,0.4688720703125,-0.730712890625,-52.42960754349701,56.25339770629357,-156.0430071426726,2.882390236229335,,,,2,0,2,3
1788945785.5167735,873728899.0,-7.95703125,-4.05859375,3.22265625,0.025390625,0.021484375,0.046875,21.5,9.1875,-32.5,21.5,9.1875,-32.5,0.2532272626071222,-0.5672445132044918,-0.09879558054478772,0.7773988995211667,-52.611500370799874,56.2959656326564,114.28512313170998,0.367919921875,0.3328857421875,0.4688720703125,-0.730712890625,-52.42960754349701,56.25339770629357,-156.0430071426726,2.874880018596553,,,,2,0,3,3
1788945785.5167735,873733282.0,-7.953125,-4.09375,3.18359375,0.01171875,0.02734375,0.041015625,21.5,9.1875,-32.5,21.5,9.1875,-32.5,0.2531271181860428,-0.5672496377375982,-0.09890636277215932,0.7774136877677,-52.620069702123196,56.29477292132646,114.29448753525196,0.3680419921875,0.3331298828125,0.46875,-0.73065185546875,-52.40622852591191,56.288557882523726,-156.02726864178072,2.7172295423324213,,,,2,0,3,3
1788945785.5247283,873736788.0,-7.95703125,-4.171875,3.18359375,-0.005859375,0.009765625,0.037109375,21.5,9.1875,-32.5,21.5,9.1875,-32.5,0.25305947062875916,-0.567243509560944,-0.0990378885287124,0.7774234379164611,-52.63113405409824,56.289440100529994,114.30021144441504,0.3680419921875,0.3331298828125,0.46875,-0.73065185546875,-52.40622852591191,56.288557882523726,-156.02726864178072,2.702896866243609,,,,2,0,3,3
1788945785.5286634,873740741.0,-7.921875,-4.171875,3.22265625,-0.005859375,0.009765625,0.037109375,18.375,5.0625,-32.6875,18.375,5.0625,-32.6875,0.2530003586989414,-0.5673011493091205,-0.09881425341950913,0.7774290757438282,-52.610499793869,56.31225028995111,114.30761718981826,0.3680419921875,0.3331298828125,0.46875,-0.73065185546875,-52.40622852591191,56.288557882523726,-156.02726864178072,2.7302372317706562,,,,2,0,3,3
1788945785.533216,873746724.0,-7.95703125,-4.1328125,3.22265625,-0.0078125,0.0,0.044921875,18.375,5.0625,-32.6875,18.375,5.0625,-32.6875,0.25284939913805166,-0.5673736472244428,-0.09847184134700374,0.7774687275077308,-52.57152679239222,56.34952899926074,114.33157025998116,0.3681640625,0.333251953125,0.46868896484375,-0.73052978515625,-52.38655833222459,56.305752270328924,-156.0061005977691,2.9038529750549027,,,,2,0,3,3
1788945785.5351691,873749230.0,-7.92578125,-4.09375,3.22265625,-0.009765625,0.0,0.04296875,18.375,5.0625,-32.6875,18.375,5.0625,-32.6875,0.25278454291924923,-0.5673964655095575,-0.09833277491316746,0.7774907659684739,-52.55406103793214,56.36437691684069,114.34322821394368,0.3681640625,0.333251953125,0.46868896484375,-0.73052978515625,-52.38655833222459,56.305752270328924,-156.0061005977691,2.9197452857802477,,,,2,0,3,3
1788945785.5351691,873752736.0,-7.8828125,-4.09375,3.22265625,-0.009765625,-0.00390625,0.05078125,18.375,5.0625,-32.6875,18.375,5.0625,-32.6875,0.25269286684417935,-0.5674140453531972,-0.09813500639786106,0.7775327238780896,-52.52613409261943,56.38433864135698,114.36280864017328,0.36834716796875,0.33331298828125,0.46868896484375,-0.73046875,-52.37907773917089,56.32849382724224,-155.9829985291476,2.7348983617753664,,,,2,0,3,3
1788945785.533216,873756289.0,-7.8828125,-4.1328125,3.22265625,-0.009765625,-0.00390625,0.05078125,18.375,5.0625,-32.6875,18.375,5.0625,-32.6875,0.2526176887289649,-0.5674328718191626,-0.09793609730577754,0.7775684922659912,-52.49941575581477,56.4035020909974,114.3796503870898,0.36834716796875,0.33331298828125,0.46868896484375,-0.73046875,-52.37907773917089,56.32849382724224,-155.9829985291476,2.7586676022523813,,,,2,0,3,3
1788945785.5478027,873760196.0,-7.88671875,-4.171875,3.26171875,-0.017578125,0.0,0.0546875,18.625,6.75,-30.75,18.625,6.75,-30.75,0.25253271979077685,-0.5673484446533893,-0.09805324912938174,0.7776429309905828,-52.49108770229297,56.39425075549139,114.40487778165547,0.36834716796875,0.33331298828125,0.46868896484375,-0.73046875,-52.37907773917089,56.32849382724224,-155.9829985291476,2.7430941735324947,,,,2,0,3,3
1788945785.5478027,873764002.0,-7.88671875,-4.171875,3.26171875,-0.01953125,0.0,0.056640625,18.625,6.75,-30.75,18.625,6.75,-30.75,0.25244458797202335,-0.5672673729729993,-0.09816805469076358,0.7777162018385491,-52.48296007039865,56.38559309621722,114.42999535137939,0.36859130859375,0.33343505859375,0.4686279296875,-0.73028564453125,-52.350621050846705,56.353312938260174,-155.94168491135895,2.858524419125565,,,,2,0,3,3
1788945785.557364,873767885.0,-7.84765625,-4.25,3.18359375,-0.0234375,0.01171875,0.046875,18.5,4.1875,-32.0625,18.5,4.1875,-32.0625,0.2524009086734841,-0.5673646324615308,-0.09797890205950611,0.7776832837883333,-52.47600299505081,56.40816077405927,114.4253404877678,0.36859130859375,0.33343505859375,0.4686279296875,-0.73028564453125,-52.350621050846705,56.353312938260174,-155.94168491135895,2.882426399455787,,,,2,0,3,3
1788945785.557364,873772068.0,-7.84375,-4.25,3.26171875,-0.015625,0.01171875,0.0546875,18.5,4.1875,-32.0625,18.5,4.1875,-32.0625,0.25235831853501217,-0.5674244077001529,-0.09775855479450436,0.7776812236236655,-52.45726150447,56.42993417279599,114.42969294367413,0.3687744140625,0.33349609375,0.46868896484375,-0.73016357421875,-52.35450378128631,56.37652075407633,-155.92396255623495,2.7780338006121728,,,,2,0,3,3
1788945785.563571,873776621.0,-7.80859375,-4.28515625,3.26171875,-0.015625,0.01171875,0.0546875,18.5,4.1875,-32.0625,18.5,4.1875,-32.0625,0.2523386443925361,-0.5674816879732498,-0.09753709420170573,0.7776736189532573,-52.43940042093618,56.45025617090269,114.43106860263327,0.3687744140625,0.33349609375,0.46868896484375,-0.73016357421875,-52.35450378128631,56.37652075407633,-155.92396255623495,2.8050941452507083,,,,2,0,3,3
1788945785.563571,873780404.0,-7.8046875,-4.25,3.30078125,-0.025390625,0.0078125,0.052734375,18.8125,6.5625,-31.8125,18.8125,6.5625,-31.8125,0.2522962176227898,-0.5674190184412296,-0.09764853371448087,0.7777191266439558,-52.43775983245099,56.44053456306517,114.44547976152988,0.3687744140625,0.33349609375,0.46868896484375,-0.73016357421875,-52.35450378128631,56.37652075407633,-155.92396255623495,2.790668158367376,,,,2,0,3,3
1788945785.563571,873784110.0,-7.8046875,-4.25,3.30078125,-0.029296875,0.01171875,0.056640625,18.8125,6.5625,-31.8125,18.8125,6.5625,-31.8125,0.25224589633375477,-0.567365611038154,-0.09775691874451789,0.7777607961524292,-52.43713757691109,56.43217746309633,114.45933257570285,0.3690185546875,0.3336181640625,0.46868896484375,-0.72998046875,-52.341005617474934,56.406015451045874,-155.89126409498417,2.776068124281239,,,,2,0,3,3
1788945785.563571,873788093.0,-7.8046875,-4.25,3.30078125,-0.03125,0.017578125,0.056640625,17.75,6.375,-36.4375,17.75,6.375,-36.4375,0.25214882540330685,-0.5673373200278177,-0.09790942666407479,0.7777937254321987,-52.44429880115686,56.42548668740137,114.47320137396433,0.3690185546875,0.3336181640625,0.46868896484375,-0.72998046875,-52.341005617474934,56.406015451045874,-155.89126409498417,2.7585579736115093,,,,2,0,3,3
1788945785.5800426,873792046.0,-7.765625,-4.171875,3.33984375,-0.03125,0.017578125,0.056640625,17.75,6.375,-36.4375,17.75,6.375,-36.4375,0.2520453090193837,-0.5672883537973435,-0.09804090066141287,0.777846429344972,-52.44399618088304,56.419024458651634,114.493299379123,0.3690185546875,0.3336181640625,0.46868896484375,-0.72998046875,-52.341005617474934,56.406015451045874,-155.89126409498417,2.742817099734026,,,,2,0,3,3
1788945785.5834439,873796152.0,-7.84375,-4.1328125,3.33984375,-0.03125,0.029296875,0.0546875,17.75,6.375,-36.4375,17.75,6.375,-36.4375,0.2519225512355959,-0.5672520007097392,-0.09816882441355522,0.7778965726772468,-52.44458122224202,56.41487604637901,114.51392649782738,0.3692626953125,0.333740234375,0.46875,-0.729736328125,-52.33888901546693,56.43597313565626,-155.86395048665403,2.805572331455945,,,,2,0,3,3
1788945785.5834439,873799735.0,-7.84765625,-4.1328125,3.30078125,-0.033203125,0.037109375,0.0546875,21.6875,7.75,-38.0625,21.6875,7.75,-38.0625,0.2518286656585,-0.5672202365968934,-0.0982565029670609,0.7779390631484626,-52.44289634805847,56.41208558368087,114.53098233565017,0.3692626953125,0.333740234375,0.46875,-0.729736328125,-52.33888901546693,56.43597313565626,-155.86395048665403,2.7955670580274887,,,,2,0,2,3
1788945785.5834439,873803241.0,-7.8046875,-4.171875,3.33984375,-0.037109375,0.044921875,0.052734375,21.6875,7.75,-38.0625,21.6875,7.75,-38.0625,0.2517569258654243,-0.5672019550179925,-0.09834046330074982,0.777965002927736,-52.44505113353879,56.40926912896368,114.54199431173284,0.369384765625,0.333984375,0.4688720703125,-0.7294921875,-52.364650515400015,56.47722731156907,-155.87303372937188,2.740245542746045,,,,2,0,2,3
1788945785.5965352,873807024.0,-7.84765625,-4.1328125,3.30078125,-0.03515625,0.048828125,0.056640625,21.8125,6.125,-39.5625,21.8125,6.125,-39.5625,0.2516736314916516,-0.5672375205614764,-0.09819855447607218,0.7779839473780182,-52.4285520119047,56.42632335795974,114.5540873214403,0.369384765625,0.333984375,0.4688720703125,-0.7294921875,-52.364650515400015,56.47722731156907,-155.87303372937188,2.757528663582565,,,,2,0,2,3
1788945785.5965352,873811000.0,-7.88671875,-4.09375,3.30078125,-0.03515625,0.048828125,0.056640625,21.8125,6.125,-39.5625,21.8125,6.125,-39.5625,0.2515576726303555,-0.5672897056095139,-0.09802432726549987,0.7780053717773523,-52.409136567097015,56.448702532486834,114.5693094372774,0.369384765625,0.333984375,0.4688720703125,-0.7294921875,-52.364650515400015,56.47722731156907,-155.87303372937188,2.779135998252028,,,,2,0,2,3
1788945785.5965352,873815683.0,-7.8828125,-4.01953125,3.22265625,-0.04296875,0.05859375,0.0625,21.8125,6.125,-39.5625,21.8125,6.125,-39.5625,0.25135332641122177,-0.5674353739993456,-0.09777415943781557,0.7779966679764543,-52.39347353423079,56.48838747315657,114.58243419850895,0.36956787109375,0.334228515625,0.468994140625,-0.729248046875,-52.38789007271536,56.52445423919972,-155.87373317562057,2.656692221930127,,,,2,0,2,3
1788945785.6115866,873819066.0,-7.8828125,-4.01953125,3.26171875,-0.048828125,0.05859375,0.056640625,21.25,7.1875,-38.875,21.25,7.1875,-38.875,0.25118277982545706,-0.5674367114250284,-0.09780041428525235,0.7780474719526682,-52.38556756896358,56.49667990259726,114.60738634381927,0.36956787109375,0.334228515625,0.468994140625,-0.729248046875,-52.38789007271536,56.52445423919972,-155.87373317562057,2.6548868441866484,,,,2,0,2,3
1788945785.6138062,873823549.0,-7.92578125,-4.01953125,3.26171875,-0.0546875,0.064453125,0.052734375,21.25,7.1875,-38.875,21.25,7.1875,-38.875,0.25093024974835837,-0.5674603316367509,-0.09782971165568767,0.7781080447452655,-52.37714873638303,56.51123460248963,114.64030579907251,0.36968994140625,0.33447265625,0.46917724609375,-0.7288818359375,-52.421594811300096,56.56197064950273,-155.88510334627173,2.8953311869726717,,,,2,0,2,3
1788945785.6118531,873826802.0,-7.92578125,-3.98046875,3.18359375,-0.0546875,0.064453125,0.052734375,21.25,7.1875,-38.875,21.25,7.1875,-38.875,0.2506819208359543,-0.5675414137524266,-0.097830675204806,0.778128830741327,-52.37738208330771,56.53178789091505,114.66200469696678,0.36968994140625,0.33447265625,0.46917724609375,-0.7288818359375,-52.421594811300096,56.56197064950273,-155.88510334627173,2.899220013388771,,,,2,0,2,3
1788945785.6138062,873831385.0,-7.92578125,-3.94140625,3.1484375,-0.05859375,0.06640625,0.044921875,22.25,6.3125,-32.3125,22.25,6.3125,-32.3125,0.2504931532045527,-0.5677639468402839,-0.09762393096394653,0.7780532430169097,-52.384458232008186,56.5734727214621,114.65482049001467,0.36968994140625,0.33447265625,0.46917724609375,-0.7288818359375,-52.421594811300096,56.56197064950273,-155.88510334627173,2.928799231757941,,,,2,0,3,3
1788945785.6138062,873835291.0,-7.99609375,-3.98046875,3.1484375,-0.07421875,0.060546875,0.041015625,22.25,6.3125,-32.3125,22.25,6.3125,-32.3125,0.25031916912142793,-0.5679586557606853,-0.09748034725007768,0.7779851289175633,-52.39490887789031,56.60796463013488,114.64813380025062,0.36981201171875,0.334716796875,0.469482421875,-0.72857666015625,-52.48922945528311,56.61314866555814,-155.9173527722761,2.7218257636357537,,,,2,0,3,3
1788945785.6289828,873838197.0,-7.9921875,-4.01953125,3.1484375,-0.080078125,0.05859375,0.0390625,17.5625,5.75,-31.6875,17.5625,5.75,-31.6875,0.25010084807671384,-0.5680964548115862,-0.09749034219349983,0.7779534799721703,-52.41028260284561,56.63045974781549,114.65296307515267,0.36981201171875,0.334716796875,0.469482421875,-0.72857666015625,-52.48922945528311,56.61314866555814,-155.9173527722761,2.7266745835701687,,,,2,0,3,3
1788945785.6294687,873842780.0,-7.953125,-4.05859375,3.1484375,-0.091796875,0.056640625,0.029296875,17.5625,5.75,-31.6875,17.5625,5.75,-31.6875,0.24977665441998206,-0.5682955772428884,-0.09764938176245583,0.7778922534865246,-52.45066523859328,56.65379929223019,114.65450834131023,0.36993408203125,0.3348388671875,0.4698486328125,-0.72821044921875,-52.560719642780114,56.64629394724975,-155.9443266277282,2.765844743805463,,,,2,0,3,3
1788945785.6275156,873847010.0,-7.9921875,-4.05859375,3.109375,-0.091796875,0.056640625,0.029296875,17.5625,5.75,-31.6875,17.5625,5.75,-31.6875,0.2495072578187982,-0.5685284536434062,-0.09775715215863554,0.7777950018452258,-52.4953062088302,56.67992448718658,114.64285405942626,0.36993408203125,0.3348388671875,0.4698486328125,-0.72821044921875,-52.560719642780114,56.64629394724975,-155.9443266277282,2.763005468503134,,,,2,0,3,3
1788945785.6395874,873850316.0,-7.99609375,-4.01953125,2.95703125,-0.095703125,0.048828125,0.037109375,19.125,7.0625,-31.6875,19.125,7.0625,-31.6875,0.24931661862754523,-0.5687120985205287,-0.09786909791700059,0.7777077936766584,-52.53553544295885,56.69744497496356,114.62896844594304,0.36993408203125,0.3348388671875,0.4698486328125,-0.72821044921875,-52.560719642780114,56.64629394724975,-155.9443266277282,2.7579597186441047,,,,2,0,3,3
1788945785.6395874,873854222.0,-7.99609375,-4.01953125,2.95703125,-0.091796875,0.04296875,0.03515625,19.125,7.0625,-31.6875,19.125,7.0625,-31.6875,0.24909678414473815,-0.5689173955775402,-0.09800063037111492,0.777611513279531,-52.5809248236282,56.716992393731445,114.61413872884583,0.3701171875,0.33489990234375,0.47021484375,-0.72784423828125,-52.6258465596592,56.67618832382709,-155.95750159720606,2.7925643511013254,,,,2,0,3,3
1788945785.6459048,873858205.0,-8.03125,-4.05859375,2.95703125,-0.09375,0.03125,0.02734375,17.6875,6.0,-32.6875,17.6875,6.0,-32.6875,0.24888429647258442,-0.569110491473793,-0.09815041906580177,0.7775193571230312,-52.62665220961236,56.73396240097096,114.59980875164408,0.3701171875,0.33489990234375,0.47021484375,-0.72784423828125,-52.6258465596592,56.67618832382709,-155.95750159720606,2.784031165900867,,,,2,0,3,3
1788945785.6459048,873861911.0,-8.03515625,-4.09375,2.9921875,-0.095703125,0.02734375,0.017578125,17.6875,6.0,-32.6875,17.6875,6.0,-32.6875,0.24870312125257715,-0.5692765477969047,-0.09832310180769306,0.7774339439840393,-52.67180504256919,56.745521785545805,114.58515258553099,0.37030029296875,0.33489990234375,0.4705810546875,-0.7275390625,-52.69079486546989,56.701123492240946,-155.96854320021012,2.703252222510273,,,,2,0,3,3
1788945785.6459048,873866064.0,-8.03515625,-4.05859375,2.9921875,-0.095703125,0.02734375,0.017578125,17.6875,6.0,-32.6875,17.6875,6.0,-32.6875,0.24848432093164355,-0.5694652175841677,-0.0984977382423581,0.7773436201411165,-52.71947076176551,56.76085524674434,114.57147367180198,0.37030029296875,0.33489990234375,0.4705810546875,-0.7275390625,-52.69079486546989,56.701123492240946,-155.96854320021012,2.691750314812561,,,,2,0,3,3
1788945785.6459048,873870247.0,-7.99609375,-4.09375,2.95703125,-0.095703125,0.017578125,0.01171875,19.3125,6.9375,-32.375,19.3125,6.9375,-32.375,0.24829953478258254,-0.5696419212256978,-0.09870080552812596,0.777247433959835,-52.77064588307228,56.77138218565225,114.55364699251962,0.37030029296875,0.33489990234375,0.4705810546875,-0.7275390625,-52.69079486546989,56.701123492240946,-155.96854320021012,2.676688267940639,,,,2,0,3,3
1788945785.6630409,873873954.0,-8.03125,-4.05859375,2.95703125,-0.087890625,0.015625,0.01171875,19.3125,6.9375,-32.375,19.3125,6.9375,-32.375,0.2481260774312819,-0.5697975041395149,-0.09884403619369439,0.7771705800426857,-52.810393660619575,56.78366272059768,114.54124829745061,0.3704833984375,0.3348388671875,0.470947265625,-0.72723388671875,-52.75189815966534,56.71683353433406,-155.9741739921918,2.7015171349111693,,,,2,0,3,3
1788945785.6677263,873877536.0,-8.03125,-4.09375,2.91796875,-0.08984375,0.005859375,0.005859375,19.1875,4.6875,-31.625,19.1875,4.6875,-31.625,0.24800549782765108,-0.5699466820194464,-0.09882969414771509,0.7771015019011044,-52.83198403331158,56.80292125931599,114.52933185786922,0.3704833984375,0.3348388671875,0.470947265625,-0.72723388671875,-52.75189815966534,56.71683353433406,-155.9741739921918,2.709656775842107,,,,2,0,3,3
1788945785.6695075,873881889.0,-7.99609375,-4.1328125,2.95703125,-0.08984375,0.005859375,0.005859375,19.1875,4.6875,-31.625,19.1875,4.6875,-31.625,0.2478722268892347,-0.5701255129226119,-0.09880611876087837,0.7770158360980242,-52.85783915428379,56.82577123243861,114.51356178297259,0.3704833984375,0.3348388671875,0.470947265625,-0.72723388671875,-52.75189815966534,56.71683353433406,-155.9741739921918,2.7202215421632,,,,2,0,3,3
1788945785.6695075,873885796.0,-7.99609375,-4.2109375,2.91796875,-0.087890625,-0.005859375,-0.001953125,19.1875,4.6875,-31.625,19.1875,4.6875,-31.625,0.2477775568940316,-0.5702786127503534,-0.09882105355251425,0.7769317766148636,-52.8858792051899,56.84183235941667,114.49537381274585,0.37066650390625,0.33465576171875,0.47125244140625,-0.72698974609375,-52.793651654165295,56.71359455121022,-155.9633297344305,2.8838678386243877,,,,2,0,3,3
1788945785.679038,873889579.0,-7.99609375,-4.25,2.95703125,-0.078125,-0.01171875,-0.00390625,17.9375,5.1875,-37.5,17.9375,5.1875,-37.5,0.24769353932824573,-0.5703742708766789,-0.09904504369715506,0.7768598206986718,-52.92954711450579,56.83892025732424,114.47780855230765,0.37066650390625,0.33465576171875,0.47125244140625,-0.72698974609375,-52.793651654165295,56.71359455121022,-155.9633297344305,2.863822116525388,,,,2,0,3,3
1788945785.677085,873894061.0,-7.95703125,-4.25,2.91796875,-0.07421875,-0.0234375,0.001953125,17.9375,5.1875,-37.5,17.9375,5.1875,-37.5,0.24758989306347037,-0.5704688468115594,-0.09929948733527742,0.7767909316445836,-52.97560286325274,56.835032512182586,114.46208295874024,0.370849609375,0.33447265625,0.4715576171875,-0.726806640625,-52.839070136121876,56.71466018009775,-155.95573551174041,2.791699229042014,,,,2,0,3,3
1788945785.679038,873897644.0,-7.95703125,-4.28515625,2.91796875,-0.0625,-0.029296875,0.009765625,22.375,6.8125,-38.0625,22.375,6.8125,-38.0625,0.24752574536940658,-0.5705649958288662,-0.09941318079184612,0.7767262132817284,-53.006445679366706,56.83838198738718,114.44647600498796,0.370849609375,0.33447265625,0.4715576171875,-0.726806640625,-52.839070136121876,56.71466018009775,-155.95573551174041,2.7832285692811785,,,,2,0,2,3
1788945785.679038,873901797.0,-7.95703125,-4.28515625,2.95703125,-0.0625,-0.029296875,0.009765625,22.375,6.8125,-38.0625,22.375,6.8125,-38.0625,0.24746105152415296,-0.5706764699037302,-0.09954406328916394,0.7766481662507548,-53.04275204574478,56.84175248366524,114.42691408969245,0.370849609375,0.33447265625,0.4715576171875,-0.726806640625,-52.839070136121876,56.71466018009775,-155.95573551174041,2.7735438796315086,,,,2,0,2,3
1788945785.694752,873905404.0,-7.921875,-4.32421875,2.95703125,-0.044921875,-0.029296875,0.01953125,22.375,6.8125,-38.0625,22.375,6.8125,-38.0625,0.24742883172124047,-0.5707567748030474,-0.09964851279230635,0.7765860230185494,-53.07120636877437,56.84264572557301,114.41011275646166,0.37103271484375,0.33428955078125,0.4716796875,-0.7266845703125,-52.84262507855725,56.70583892678653,-155.92501524240848,2.90103488323266,,,,2,0,2,3
1788945785.695848,873909386.0,-7.8828125,-4.28515625,2.91796875,-0.02734375,-0.04296875,0.03125,21.875,6.0625,-36.875,21.875,6.0625,-36.875,0.24738377995264857,-0.5708407645756997,-0.09963559920929475,0.7765402979145222,-53.0843801655327,56.85245382646642,114.39999245340364,0.37103271484375,0.33428955078125,0.4716796875,-0.7266845703125,-52.84262507855725,56.70583892678653,-155.92501524240848,2.9059472104667887,,,,2,0,2,3
1788945785.695848,873913293.0,-7.88671875,-4.32421875,2.91796875,-0.01171875,-0.048828125,0.03125,21.875,6.0625,-36.875,21.875,6.0625,-36.875,0.24736660783755232,-0.5709036038224224,-0.09962128307016864,0.7765014078731387,-53.09476119926429,56.859128564771005,114.39007211548031,0.37127685546875,0.33416748046875,0.4716796875,-0.72662353515625,-52.82084177742291,56.70710264544392,-155.87698609752871,2.8955108566581993,,,,2,0,2,3
1788945785.6938949,873917422.0,-7.84375,-4.32421875,2.9921875,-0.01171875,-0.048828125,0.03125,21.875,6.0625,-36.875,21.875,6.0625,-36.875,0.24739787744644734,-0.5709559238939992,-0.09960217088130503,0.7764554274142682,-53.105569001893784,56.86247968641821,114.37508889647377,0.37127685546875,0.33416748046875,0.4716796875,-0.72662353515625,-52.82084177742291,56.70710264544392,-155.87698609752871,2.8992654576737,,,,2,0,2,3
1788945785.7113142,873921029.0,-7.84765625,-4.32421875,2.95703125,0.0,-0.046875,0.041015625,22.125,6.4375,-37.4375,22.125,6.4375,-37.4375,0.2474054570025763,-0.5709976358258176,-0.09960878208346169,0.7764214900803061,-53.11583981940522,56.86470570335863,114.36480836722086,0.37127685546875,0.33416748046875,0.4716796875,-0.72662353515625,-52.82084177742291,56.70710264544392,-155.87698609752871,2.9000982174068053,,,,2,0,2,3
1788945785.7130265,873924935.0,-7.80859375,-4.32421875,2.9921875,0.005859375,-0.046875,0.048828125,22.125,6.4375,-37.4375,22.125,6.4375,-37.4375,0.24744189041896522,-0.5710234299003417,-0.0996127504446782,0.7763904000691823,-53.12433029843017,56.864215767581044,114.35354089534471,0.37152099609375,0.33404541015625,0.47149658203125,-0.72662353515625,-52.75719520603466,56.69842544700236,-155.80581092455128,3.0628339777199245,,,,2,0,2,3
1788945785.7130265,873929018.0,-7.80859375,-4.32421875,3.03125,0.021484375,-0.0546875,0.0546875,23.375,6.5,-31.125,23.375,6.5,-31.125,0.247419552388229,-0.5710293941109043,-0.09938013914040932,0.7764229415091847,-53.09396528003693,56.88161748313283,114.36659159170435,0.37152099609375,0.33404541015625,0.47149658203125,-0.72662353515625,-52.75719520603466,56.69842544700236,-155.80581092455128,3.0867171052232525,,,,2,0,2,3
1788945785.7218971,873932624.0,-7.80859375,-4.32421875,2.9921875,0.03125,-0.052734375,0.05859375,23.375,6.5,-31.125,23.375,6.5,-31.125,0.24740162684462064,-0.5710453672600534,-0.09916579994405154,0.7764443107441268,-53.06839222368738,56.89827687974754,114.3760056751683,0.371826171875,0.33404541015625,0.47125244140625,-0.7266845703125,-52.68727304217473,56.71376878335808,-155.7316147272179,2.910807674859835,,,,2,0,2,3
1788945785.7260802,873936854.0,-7.76953125,-4.32421875,3.03125,0.03125,-0.052734375,0.05859375,23.375,6.5,-31.125,23.375,6.5,-31.125,0.24739806457975286,-0.5710480318724106,-0.09890864667048826,0.7764762858907226,-53.03539621506575,56.91596954012533,114.38801512510584,0.371826171875,0.33404541015625,0.47125244140625,-0.7266845703125,-52.68727304217473,56.71376878335808,-155.7316147272179,2.938546723146987,,,,2,0,2,3
1788945785.7292898,873940360.0,-7.73046875,-4.28515625,2.9921875,0.044921875,-0.064453125,0.068359375,18.4375,7.5625,-31.75,18.4375,7.5625,-31.75,0.24736914429989235,-0.5709353790060114,-0.09897220619378877,0.7765602371025283,-53.01760906433662,56.90497028900457,114.41330676223782,0.371826171875,0.33404541015625,0.47125244140625,-0.7266845703125,-52.68727304217473,56.71376878335808,-155.7316147272179,2.9272930359589604,,,,2,0,3,3
1788945785.7292898,873944266.0,-7.73046875,-4.25,3.03125,0.052734375,-0.064453125,0.0703125,18.4375,7.5625,-31.75,18.4375,7.5625,-31.75,0.24734135483022698,-0.5707949896792487,-0.09903078420330716,0.7766648168469408,-52.99335437772397,56.89215706280718,114.44448704315766,0.3721923828125,0.33404541015625,0.47088623046875,-0.72674560546875,-52.58442017672238,56.72560212388607,-155.63132701083714,2.8598775513058414,,,,2,0,3,3
1788945785.7353995,873949025.0,-7.73046875,-4.2109375,3.03125,0.0703125,-0.06640625,0.076171875,18.375,6.5,-32.5625,18.375,6.5,-32.5625,0.24733891101342617,-0.5706209360265656,-0.09905860532449974,0.7767899350390836,-52.959688993069506,56.877385313084275,114.48024293955419,0.3721923828125,0.33404541015625,0.47088623046875,-0.72674560546875,-52.58442017672238,56.72560212388607,-155.63132701083714,2.8495001621706173,,,,2,0,3,3
1788945785.7353995,873952732.0,-7.73046875,-4.171875,3.0703125,0.0703125,-0.0625,0.076171875,18.375,6.5,-32.5625,18.375,6.5,-32.5625,0.24733572773859322,-0.570469564767729,-0.09907939899960852,0.7768994697846141,-52.92992775369759,56.86482061700496,114.51163210117814,0.37249755859375,0.3341064453125,0.470458984375,-0.72686767578125,-52.476500311158745,56.740161829759984,-155.53941008573074,2.7106780078403183,,,,2,0,3,3
1788945785.745517,873956485.0,-7.7265625,-4.171875,3.109375,0.0703125,-0.0625,0.076171875,18.375,6.5,-32.5625,18.375,6.5,-32.5625,0.24733661770877954,-0.5702976516713086,-0.09909434229149547,0.7770234857225279,-52.89534319491729,56.85085768200208,114.54695473153947,0.37249755859375,0.3341064453125,0.470458984375,-0.72686767578125,-52.476500311158745,56.740161829759984,-155.53941008573074,2.7013288293860116,,,,2,0,3,3
1788945785.7458394,873959891.0,-7.765625,-4.1328125,3.18359375,0.0703125,-0.0625,0.087890625,19.0,5.5,-32.5625,19.0,5.5,-32.5625,0.24734395376563073,-0.5701454095620658,-0.09886381326341775,0.7771622268985451,-52.83354924108967,56.8544413160625,114.58863526664734,0.37249755859375,0.3341064453125,0.470458984375,-0.72686767578125,-52.476500311158745,56.740161829759984,-155.53941008573074,2.7207992913154717,,,,2,0,3,3
1788945785.7548623,873964174.0,-7.8046875,-4.09375,3.1484375,0.08203125,-0.05859375,0.091796875,19.0,5.5,-32.5625,19.0,5.5,-32.5625,0.24732940192218741,-0.5699983437758813,-0.0984832327123144,0.7773230396122949,-52.75186885544991,56.86973044675368,114.63968616642168,0.37286376953125,0.334228515625,0.46990966796875,-0.72698974609375,-52.339487440660214,56.76043372038589,-155.4267713124457,2.6781582062254388,,,,2,0,3,3
1788945785.7548623,873967957.0,-7.8046875,-4.09375,3.18359375,0.08203125,-0.046875,0.091796875,19.4375,5.5625,-32.1875,19.4375,5.5625,-32.1875,0.24731411683954668,-0.5698821545243866,-0.0981425417842185,0.7774561717927585,-52.681854511603994,56.884685963104246,114.68251633456383,0.37286376953125,0.334228515625,0.46990966796875,-0.72698974609375,-52.339487440660214,56.76043372038589,-155.4267713124457,2.7122598454826727,,,,2,0,3,3
1788945785.7639337,873972063.0,-7.84375,-4.05859375,3.22265625,0.083984375,-0.048828125,0.08984375,19.4375,5.5625,-32.1875,19.4375,5.5625,-32.1875,0.24727899618443733,-0.5697426933266573,-0.09777194970253313,0.7776162339472271,-52.60161958299921,56.901019733697524,114.7347576427061,0.3731689453125,0.33441162109375,0.4693603515625,-0.72705078125,-52.20518300519132,56.779659965502454,-155.3244960619875,2.8805748267997733,,,,2,0,3,3
1788945785.7642632,873975439.0,-7.8828125,-4.05859375,3.22265625,0.083984375,-0.048828125,0.08984375,19.4375,5.5625,-32.1875,19.4375,5.5625,-32.1875,0.24724411967798138,-0.5696356922193241,-0.09745946622493486,0.7777449298308683,-52.535825152847195,56.915873908010504,114.77743218321481,0.3731689453125,0.33441162109375,0.4693603515625,-0.72705078125,-52.20518300519132,56.779659965502454,-155.3244960619875,2.910029510394102,,,,2,0,3,3
1788945785.768831,873979422.0,-7.9921875,-4.01953125,3.30078125,0.083984375,-0.041015625,0.087890625,18.75,7.5625,-31.6875,18.75,7.5625,-31.6875,0.24716886107549513,-0.5694358001215903,-0.0973888518277071,0.7779240549013815,-52.47903471957809,56.909854489142354,114.83441883126913,0.3731689453125,0.33441162109375,0.4693603515625,-0.72705078125,-52.20518300519132,56.779659965502454,-155.3244960619875,2.9101876002032814,,,,2,0,3,3
1788945785.7747648,873983905.0,-7.92578125,-4.05859375,3.33984375,0.08203125,-0.037109375,0.0859375,18.75,7.5625,-31.6875,18.75,7.5625,-31.6875,0.24711693503876941,-0.5692151432823683,-0.09731137451446326,0.7781117127155864,-52.41859055591936,56.901326838068286,114.89240817671423,0.37347412109375,0.3345947265625,0.4688720703125,-0.7271728515625,-52.08962246251137,56.807875668658234,-155.23439872275034,2.7023958563336796,,,,2,0,3,3
1788945785.7795992,873987188.0,-7.95703125,-4.05859375,3.33984375,0.078125,-0.033203125,0.0703125,18.25,4.1875,-37.9375,18.25,4.1875,-37.9375,0.24710746546300003,-0.5690939813817558,-0.09706424496402502,0.7782342020350158,-52.36004424588439,56.90917987972409,114.93100089955034,0.37347412109375,0.3345947265625,0.4688720703125,-0.7271728515625,-52.08962246251137,56.807875668658234,-155.23439872275034,2.725832942176262,,,,2,0,3,3
1788945785.7795992,873991641.0,-7.99609375,-3.98046875,3.375,0.078125,-0.033203125,0.0703125,18.25,4.1875,-37.9375,18.25,4.1875,-37.9375,0.24706634154503507,-0.5689372346514797,-0.09671390438227688,0.7784054641392332,-52.278295293511505,56.923035153340024,114.98690956668656,0.37347412109375,0.3345947265625,0.4688720703125,-0.7271728515625,-52.08962246251137,56.807875668658234,-155.23439872275034,2.760184062279651,,,,2,0,3,3
1788945785.7832043,873995547.0,-8.03125,-3.98046875,3.375,0.068359375,-0.029296875,0.076171875,18.25,4.1875,-37.9375,18.25,4.1875,-37.9375,0.24700587012749026,-0.5688158547571089,-0.09640730543073389,0.7785513823499937,-52.20837557113952,56.937756178904955,115.0363844054353,0.3736572265625,0.33477783203125,0.46844482421875,-0.72723388671875,-51.99072613510695,56.82458140826455,-155.16652906834705,2.869531784736703,,,,2,0,3,3
1788945785.7876315,873999330.0,-8.0703125,-3.94140625,3.33984375,0.05078125,-0.015625,0.05859375,21.5,5.5,-37.625,21.5,5.5,-37.625,0.24694524405391732,-0.5687639982034742,-0.09611372160532576,0.7786447927687716,-52.15482235897906,56.95689632627389,115.07076046919893,0.3736572265625,0.33477783203125,0.46844482421875,-0.72723388671875,-51.99072613510695,56.82458140826455,-155.16652906834705,2.900337912397411,,,,2,0,3,3
1788945785.7934992,874003136.0,-8.03515625,-3.90234375,3.4140625,0.041015625,-0.017578125,0.064453125,21.5,5.5,-37.625,21.5,5.5,-37.625,0.24687097028958285,-0.5686916398771674,-0.09584462235700358,0.7787543586570423,-52.09915360871253,56.97361571207746,115.11041570587763,0.3739013671875,0.3349609375,0.46807861328125,-0.72723388671875,-51.900597770751105,56.84774965949566,-155.09555617350188,2.9731694655478647,,,,2,0,3,3
1788945785.7948613,874007266.0,-8.03515625,-3.90234375,3.375,0.041015625,-0.017578125,0.064453125,21.5,5.5,-37.625,21.5,5.5,-37.625,0.24678643115268936,-0.5686225136854404,-0.09554454654764664,0.7788684959311004,-52.0393650111139,56.99322163340688,115.15252633949038,0.3739013671875,0.3349609375,0.46807861328125,-0.72723388671875,-51.900597770751105,56.84774965949566,-155.09555617350188,3.003354661131856,,,,2,0,3,3
1788945785.7968144,874010872.0,-8.07421875,-3.8671875,3.33984375,0.03125,-0.0234375,0.0546875,21.375,7.375,-37.8125,21.375,7.375,-37.8125,0.24665327316935984,-0.5684922292280711,-0.09542057304392171,0.7790209640196528,-51.98629104915014,56.99921812504973,115.20658073062717,0.3739013671875,0.3349609375,0.46807861328125,-0.72723388671875,-51.900597770751105,56.84774965949566,-155.09555617350188,3.0129651059589597,,,,2,0,3,3
1788945785.7968144,874014979.0,-8.03125,-3.90234375,3.33984375,0.017578125,-0.01953125,0.052734375,21.375,7.375,-37.8125,21.375,7.375,-37.8125,0.2465103791658655,-0.5683408125649001,-0.0953376975662242,0.7791868050469934,-51.9334551010883,57.00139833269275,115.26459304796157,0.37408447265625,0.3350830078125,0.46783447265625,-0.72723388671875,-51.83958304426327,56.86517763191208,-155.0453633628392,3.0130492176317283,,,,2,0,3,3
1788945785.811363,874018861.0,-8.03515625,-3.8671875,3.375,0.00390625,-0.015625,0.044921875,21.4375,6.4375,-37.5625,21.4375,6.4375,-37.5625,0.24639618092979804,-0.5682578938421049,-0.09516895519789993,0.7793040215961198,-51.885822521721124,57.012859900009104,115.30796819558954,0.37408447265625,0.3350830078125,0.46783447265625,-0.72723388671875,-51.83958304426327,56.86517763191208,-155.0453633628392,3.0291284492838604,,,,2,0,3,3
1788945785.8133848,874022468.0,-7.99609375,-3.90234375,3.33984375,-0.009765625,-0.015625,0.03125,21.4375,6.4375,-37.5625,21.4375,6.4375,-37.5625,0.24630010955389617,-0.5681801527175179,-0.09505023840041817,0.7794055569930589,-51.847100504502286,57.020330169456955,115.34501275940295,0.374267578125,0.33514404296875,0.46771240234375,-0.72723388671875,-51.80508163936948,56.88286766381764,-155.00759045737715,2.885266429881477,,,,2,0,3,3
1788945785.8134806,874026697.0,-7.99609375,-3.8671875,3.33984375,-0.009765625,-0.015625,0.03125,21.4375,6.4375,-37.5625,21.4375,6.4375,-37.5625,0.24617995263033152,-0.568095020255089,-0.09490440287697945,0.779523337173982,-51.80155669355019,57.03041102558923,115.38870792770867,0.374267578125,0.33514404296875,0.46771240234375,-0.72723388671875,-51.80508163936948,56.88286766381764,-155.00759045737715,2.899698072859772,,,,2,0,3,3
1788945785.8154337,874030704.0,-7.9921875,-3.90234375,3.30078125,-0.015625,-0.009765625,0.0234375,21.75,8.5,-30.8125,21.75,8.5,-30.8125,0.24606133425324794,-0.5679666665009941,-0.09493227618109523,0.7796509144920798,-51.76982530470262,57.02552689027209,115.43273371682136,0.374267578125,0.33514404296875,0.46771240234375,-0.72723388671875,-51.80508163936948,56.88286766381764,-155.00759045737715,2.893302290144141,,,,2,0,3,3
1788945785.8224173,874034510.0,-7.95703125,-3.8671875,3.33984375,-0.025390625,-0.005859375,0.013671875,21.75,8.5,-30.8125,21.75,8.5,-30.8125,0.24596881169334145,-0.5678540307291879,-0.09496026854690383,0.779758738877789,-51.743270526862325,57.0203289454114,115.46936374723285,0.3743896484375,0.3350830078125,0.46771240234375,-0.72711181640625,-51.78859064448961,56.87695417169495,-154.9782329576171,3.1671170837431535,,,,2,0,3,3
1788945785.8224173,874038293.0,-7.953125,-3.8671875,3.30078125,-0.033203125,-0.00390625,0.013671875,18.1875,5.6875,-31.6875,18.1875,5.6875,-31.6875,0.24585315179451045,-0.5677923929174217,-0.09489462975510436,0.779848084912347,-51.71353179036024,57.02660026379437,115.50356385313454,0.3743896484375,0.3350830078125,0.46771240234375,-0.72711181640625,-51.78859064448961,56.87695417169495,-154.9782329576171,3.17302667047697,,,,2,0,3,3
1788945785.8325515,874042775.0,-7.99609375,-3.8671875,3.26171875,-0.044921875,-0.00390625,0.005859375,18.1875,5.6875,-31.6875,18.1875,5.6875,-31.6875,0.2456804119836268,-0.5677592914832605,-0.09481779745787704,0.7799359636452332,-51.68431545600441,57.03909809602093,115.5413492709265,0.37451171875,0.33502197265625,0.46783447265625,-0.72705078125,-51.80614256233089,56.88492029948503,-154.9703112250289,3.0325820168404354,,,,2,0,3,3
1788945785.8325515,874045952.0,-7.92578125,-3.8671875,3.26171875,-0.044921875,-0.00390625,0.005859375,18.1875,5.6875,-31.6875,18.1875,5.6875,-31.6875,0.24557387572738032,-0.5677152959481094,-0.09478064203812915,0.7800060539519059,-51.66266676537568,57.044301538252235,115.56906947061763,0.37451171875,0.33502197265625,0.46783447265625,-0.72705078125,-51.80614256233089,56.88492029948503,-154.9703112250289,3.036308046172724,,,,2,0,3,3
1788945785.8335676,874050135.0,-7.95703125,-3.90234375,3.26171875,-0.046875,-0.00390625,-0.001953125,17.3125,5.5,-33.125,17.3125,5.5,-33.125,0.24541667535498923,-0.5676128346333625,-0.0948983148473593,0.780115783237536,-51.64554414356849,57.037642223328945,115.60934322220012,0.37451171875,0.33502197265625,0.46783447265625,-0.72705078125,-51.80614256233089,56.88492029948503,-154.9703112250289,3.0220615024726865,,,,2,0,3,3
1788945785.8403385,874053641.0,-7.92578125,-3.90234375,3.22265625,-0.046875,0.005859375,-0.0078125,17.3125,5.5,-33.125,17.3125,5.5,-33.125,0.24527862048729873,-0.5675497129571553,-0.09502359880795709,0.7801898726103041,-51.639069381044855,57.03241496094003,115.63803587734627,0.3746337890625,0.3349609375,0.468017578125,-0.7269287109375,-51.83517320297255,56.8934039517149,-154.9678207246808,2.92487750657196,,,,2,0,3,3
1788945785.8460186,874058200.0,-7.921875,-3.94140625,3.26171875,-0.056640625,0.0078125,-0.0078125,18.125,6.125,-31.9375,18.125,6.125,-31.9375,0.24516034195151595,-0.5674497930548723,-0.09522459235059096,0.7802752181812915,-51.636239762537,57.0181899738865,115.66754286419199,0.3746337890625,0.3349609375,0.468017578125,-0.7269287109375,-51.83517320297255,56.8934039517149,-154.9678207246808,2.9006277686237856,,,,2,0,3,3
1788945785.8460186,874062554.0,-7.921875,-3.98046875,3.26171875,-0.056640625,0.0078125,-0.0078125,18.125,6.125,-31.9375,18.125,6.125,-31.9375,0.2450737899445597,-0.5673582886612438,-0.09545301280816632,0.7803410357756656,-51.64104724192727,57.00097606399724,115.6889499599575,0.3746337890625,0.3349609375,0.468017578125,-0.7269287109375,-51.83517320297255,56.8934039517149,-154.9678207246808,2.8732509871413288,,,,2,0,3,3
1788945785.8541336,874065483.0,-7.921875,-3.98046875,3.22265625,-0.064453125,0.001953125,-0.01171875,18.125,6.125,-31.9375,18.125,6.125,-31.9375,0.24499593250800647,-0.5673086026982719,-0.09564444073089559,0.7803781668629259,-51.65038966089922,56.98894821979827,115.70210906866777,0.37469482421875,0.3348388671875,0.46826171875,-0.726806640625,-51.87826274896229,56.891396959527185,-154.97729734100707,2.842165565456896,,,,2,0,3,3
1788945785.860058,874070043.0,-7.953125,-3.98046875,3.22265625,-0.064453125,0.0078125,-0.013671875,18.25,5.75,-31.3125,18.25,5.75,-31.3125,0.24483720661112704,-0.5673077031374374,-0.09561189053381683,0.7804326227217407,-51.634773870818414,57.000169683042536,115.7288214183343,0.37469482421875,0.3348388671875,0.46826171875,-0.726806640625,-51.87826274896229,56.891396959527185,-154.97729734100707,2.8477764264863716,,,,2,0,3,3
1788945785.8630145,874073949.0,-7.953125,-3.98046875,3.26171875,-0.05859375,0.005859375,-0.013671875,18.25,5.75,-31.3125,18.25,5.75,-31.3125,0.24475028062050472,-0.5672581636854023,-0.09561616098854797,0.7804953719441657,-51.61883154794627,57.001053114435464,115.75254664156608,0.374755859375,0.334716796875,0.46856689453125,-0.72662353515625,-51.932846032389506,56.88991523073622,-154.99221304926797,2.9133866091601943,,,,2,0,3,3
1788945785.8691597,874078208.0,-7.953125,-3.98046875,3.26171875,-0.05859375,0.015625,-0.021484375,18.5,5.1875,-32.0,18.5,5.1875,-32.0,0.24470353192148483,-0.5672997306053391,-0.09554312619342299,0.7804887623518023,-51.6146411456592,57.01179268023193,115.75485408714434,0.374755859375,0.334716796875,0.46856689453125,-0.72662353515625,-51.932846032389506,56.88991523073622,-154.99221304926797,2.9232539743364403,,,,2,0,3,3
1788945785.8706973,874081485.0,-7.953125,-3.94140625,3.26171875,-0.05859375,0.015625,-0.021484375,18.5,5.1875,-32.0,18.5,5.1875,-32.0,0.24465679154054065,-0.5673317953572697,-0.0954867143423393,0.7804870118803322,-51.61064844158677,57.02069652211697,115.75831625434147,0.374755859375,0.334716796875,0.46856689453125,-0.72662353515625,-51.932846032389506,56.88991523073622,-154.99221304926797,2.931010169332896,,,,2,0,3,3
1788945785.876732,874085091.0,-7.9921875,-3.94140625,3.22265625,-0.0546875,0.015625,-0.03125,18.5,5.1875,-32.0,18.5,5.1875,-32.0,0.2446083394045418,-0.5673962821759002,-0.09541926509649624,0.7804635693708984,-51.61189240704574,57.0329411325399,115.75585827453475,0.374755859375,0.3345947265625,0.46881103515625,-0.72650146484375,-51.97860128782467,56.88193397457968,-155.01012786563217,3.0333672650350167,,,,2,0,3,3
1788945785.8797927,874089074.0,-7.9921875,-3.90234375,3.18359375,-0.060546875,0.01953125,-0.044921875,17.3125,5.6875,-37.5625,17.3125,5.6875,-37.5625,0.2445038126961725,-0.567413102894586,-0.09569516447120589,0.7804503134328294,-51.64451192597732,57.02201793324369,115.75522419129041,0.374755859375,0.3345947265625,0.46881103515625,-0.72650146484375,-51.97860128782467,56.88193397457968,-155.01012786563217,3.0043580962092604,,,,2,0,3,3
1788945785.885443,874093357.0,-7.9921875,-3.94140625,3.22265625,-0.0703125,0.025390625,-0.060546875,17.3125,5.6875,-37.5625,17.3125,5.6875,-37.5625,0.24443048649891905,-0.5674150958164849,-0.09603900025462545,0.7804295975548102,-51.68517330625467,57.003659303528714,115.74942969850817,0.3746337890625,0.33441162109375,0.46917724609375,-0.7264404296875,-52.05988794829397,56.866527953524276,-155.0608464972222,2.9174640113427692,,,,2,0,3,3
1788945785.886113,874097539.0,-8.03515625,-3.90234375,3.18359375,-0.068359375,0.029296875,-0.064453125,17.3125,5.6875,-37.5625,17.3125,5.6875,-37.5625,0.24432444742798265,-0.5674608525314365,-0.0963367967527538,0.7803928285323519,-51.7266599993804,56.9936172876556,115.74194927736902,0.3746337890625,0.33441162109375,0.46917724609375,-0.7264404296875,-52.05988794829397,56.866527953524276,-155.0608464972222,2.8858763646511205,,,,2,0,3,3
1788945785.890048,874101493.0,-8.03125,-3.94140625,3.1484375,-0.068359375,0.029296875,-0.064453125,21.5,5.5,-37.625,21.5,5.5,-37.625,0.24431460954807765,-0.567595373373037,-0.09631963960413377,0.780300192690879,-51.751986381714204,57.00572331635129,115.7163943659578,0.3746337890625,0.33441162109375,0.46917724609375,-0.7264404296875,-52.05988794829397,56.866527953524276,-155.0608464972222,2.8912518318994276,,,,2,0,3,3
1788945785.8989682,874106875.0,-8.11328125,-3.90234375,3.109375,-0.06640625,0.03125,-0.078125,21.5,5.5,-37.625,21.5,5.5,-37.625,0.24431268654607866,-0.5677929286861175,-0.09632616409320584,0.7801562480925006,-51.79428153241477,57.02066967406268,115.67530324263447,0.37445068359375,0.334228515625,0.4696044921875,-0.726318359375,-52.155258271256145,56.845623348210765,-155.12538349478547,3.0202062903952367,,,,2,0,3,3
1788945785.8938901,874108982.0,-8.11328125,-3.90234375,3.1484375,-0.06640625,0.03125,-0.078125,21.5,5.5,-37.625,21.5,5.5,-37.625,0.24431271724485537,-0.5678631969969764,-0.09632432249035627,0.7801053201879747,-51.80883754919244,57.02621658561613,115.66076831043368,0.37445068359375,0.334228515625,0.4696044921875,-0.726318359375,-52.155258271256145,56.845623348210765,-155.12538349478547,3.0220861948061546,,,,2,0,3,3
1788945785.9009213,874112888.0,-8.109375,-3.94140625,3.1484375,-0.07421875,0.029296875,-0.080078125,21.5,5.5,-37.625,21.5,5.5,-37.625,0.244312387484768,-0.5679981158624333,-0.09633641709947967,0.7800057002603591,-51.83883616200675,57.03584909478436,115.63213880844846,0.37420654296875,0.33404541015625,0.47003173828125,-0.72625732421875,-52.25687826474187,56.82296892775776,-155.2017413038033,3.053431137210605,,,,2,0,3,3
1788945785.8989682,874117271.0,-8.15234375,-4.01953125,3.18359375,-0.080078125,0.02734375,-0.08984375,21.5,5.5,-37.625,21.5,5.5,-37.625,0.24433328992591505,-0.5681476335969463,-0.09637081072265719,0.7798860023829294,-51.87636002879058,57.04389526855977,115.59602307691317,0.37420654296875,0.33404541015625,0.47003173828125,-0.72625732421875,-52.25687826474187,56.82296892775776,-155.2017413038033,3.0528531752551156,,,,2,0,3,3
1788945785.9009213,874120824.0,-8.11328125,-4.05859375,3.18359375,-0.080078125,0.02734375,-0.08984375,21.8125,7.4375,-37.0625,21.8125,7.4375,-37.0625,0.24428568820189273,-0.5682512702343174,-0.09663599833566358,0.7797925879632879,-51.929845091919326,57.037059912917016,115.56890531163053,0.37420654296875,0.33404541015625,0.47003173828125,-0.72625732421875,-52.25687826474187,56.82296892775776,-155.2017413038033,3.026480345669348,,,,2,0,3,3
1788945785.913729,874124230.0,-8.11328125,-4.09375,3.18359375,-0.08984375,0.025390625,-0.0859375,21.8125,7.4375,-37.0625,21.8125,7.4375,-37.0625,0.24425425873072856,-0.5683488938470449,-0.09692921113418106,0.7796948890326575,-51.9868781318862,57.02695581523353,115.53914163081163,0.37396240234375,0.333740234375,0.47052001953125,-0.7261962890625,-52.36593478256479,56.78651667842486,-155.275980443245,3.09190682116974,,,,2,0,3,3
1788945785.9068825,874128713.0,-8.15234375,-4.09375,3.1484375,-0.1015625,0.015625,-0.087890625,21.8125,7.4375,-37.0625,21.8125,7.4375,-37.0625,0.2441944297936138,-0.5685086684466679,-0.0972769720244185,0.7795538243588628,-52.062228180212934,57.01964130691046,115.49820256297804,0.37396240234375,0.333740234375,0.47052001953125,-0.7261962890625,-52.36593478256479,56.78651667842486,-155.275980443245,3.058458151838224,,,,2,0,3,3
1788945785.9137836,874136372.0,-8.0703125,-3.98046875,2.87890625,-0.103515625,0.009765625,-0.0859375,22.375,6.0,-31.6875,22.375,6.0,-31.6875,0.2441563936567073,-0.5688157138282595,-0.09749187623486233,0.7793148742368549,-52.1527540699445,57.03115160295522,115.42954818251897,0.373779296875,0.33343505859375,0.4710693359375,-0.72607421875,-52.48379391021273,56.756581242542964,-155.3471327364699,3.1073881189732355,,,,2,0,3,3
1788945785.9292483,874140555.0,-8.03515625,-4.09375,3.109375,-0.130859375,-0.013671875,-0.09765625,22.375,6.0,-31.6875,22.375,6.0,-31.6875,0.24414396845030745,-0.568924192036874,-0.09764016549349157,0.7792210113099678,-52.19434248183695,57.03033988994872,115.4015943632887,0.373779296875,0.33343505859375,0.4710693359375,-0.72607421875,-52.48379391021273,56.756581242542964,-155.3471327364699,3.094148711238925,,,,2,0,3,3
1788945785.9272952,874144061.0,-7.95703125,-4.36328125,3.33984375,-0.140625,-0.029296875,-0.1015625,22.375,6.0,-31.6875,22.375,6.0,-31.6875,0.24421404021846624,-0.5689241384197833,-0.09782375186345309,0.7791760653760087,-52.223331274622716,57.01406868646553,115.38173120811102,0.37371826171875,0.3328857421875,0.4716796875,-0.7259521484375,-52.59617673722991,56.706419065589635,-155.38832616221995,3.1893264968404926,,,,2,0,3,3
1788945785.9292483,874147644.0,-7.92578125,-4.4765625,3.33984375,-0.142578125,-0.015625,-0.08984375,19.0,6.0,-32.5,19.0,6.0,-32.5,0.24429544906960177,-0.5688848946447447,-0.09823976951086445,0.7791268560994234,-52.27533002746701,56.97868991021684,115.35703903419318,0.37371826171875,0.3328857421875,0.4716796875,-0.7259521484375,-52.59617673722991,56.706419065589635,-155.38832616221995,3.141798545054405,,,,2,0,3,3
1788945785.9446027,874152427.0,-7.8828125,-4.4765625,3.22265625,-0.142578125,0.0,-0.068359375,19.0,6.0,-32.5,19.0,6.0,-32.5,0.2443724984743606,-0.5689124021639357,-0.09878025845923483,0.779014262508836,-52.3574168897161,56.9403812780074,115.31312023309441,0.37371826171875,0.3323974609375,0.4722900390625,-0.725830078125,-52.70974919099376,56.671584597181905,-155.42641791176814,3.006387460312052,,,,2,0,3,3
1788945785.933291,874156180.0,-7.8828125,-4.44140625,3.109375,-0.142578125,0.0,-0.068359375,19.0,6.0,-32.5,19.0,6.0,-32.5,0.24442119930542816,-0.5689816160490413,-0.09920173748103618,0.7788948665956535,-52.43067541171367,56.914795065278376,115.27073388207802,0.37371826171875,0.3323974609375,0.4722900390625,-0.725830078125,-52.70974919099376,56.671584597181905,-155.42641791176814,2.959196411037244,,,,2,0,3,3
1788945785.9398384,874159763.0,-7.88671875,-4.36328125,3.03125,-0.123046875,0.0,-0.0546875,18.75,7.5625,-31.6875,18.75,7.5625,-31.6875,0.24440580500345868,-0.5690276615670151,-0.09959123430481,0.7788163512034337,-52.49039093257561,56.89328859880198,115.24475363299867,0.37371826171875,0.3323974609375,0.4722900390625,-0.725830078125,-52.70974919099376,56.671584597181905,-155.42641791176814,2.916019840107699,,,,2,0,3,3
1788945785.944433,874163746.0,-7.88671875,-4.36328125,3.03125,-0.103515625,0.0,-0.046875,18.75,7.5625,-31.6875,18.75,7.5625,-31.6875,0.24439860414282596,-0.5690709265795854,-0.09998494003757237,0.7787365501763568,-52.55060354862849,56.87080065347069,115.21790850584206,0.37371826171875,0.33203125,0.47283935546875,-0.7255859375,-52.8085384791068,56.64206806624996,-155.45978851466475,3.1108798174466177,,,,2,0,3,3
1788945785.944433,874167652.0,-7.84765625,-4.40234375,3.03125,-0.076171875,-0.001953125,-0.044921875,18.75,7.5625,-31.6875,18.75,7.5625,-31.6875,0.24442580899198196,-0.5690936968937732,-0.10032897532824787,0.778667120638837,-52.602309662507786,56.84803913086979,115.19241512279677,0.37371826171875,0.33203125,0.47283935546875,-0.7255859375,-52.8085384791068,56.64206806624996,-155.45978851466475,3.0737998985122346,,,,2,0,3,3
1788945785.959023,874175511.0,-7.73046875,-4.36328125,3.109375,-0.072265625,-0.005859375,-0.0390625,17.625,5.8125,-31.0,17.625,5.8125,-31.0,0.24458555357350953,-0.5690846030285432,-0.10096726289182333,0.778541092944437,-52.69476549578235,56.79549210098577,115.1389778329194,0.37371826171875,0.33172607421875,0.47320556640625,-0.7254638671875,-52.87295542127819,56.616013619154046,-155.47876043528203,3.1224399373399314,,,,2,0,3,3
1788945785.962958,874179771.0,-7.73046875,-4.36328125,3.03125,-0.08203125,-0.001953125,-0.033203125,17.875,7.6875,-31.0625,17.875,7.6875,-31.0625,0.24458320637073774,-0.5690962365134201,-0.1013444858213569,0.7784843119429419,-52.74634462247425,56.77137703470189,115.11890937754136,0.37371826171875,0.33172607421875,0.47320556640625,-0.7254638671875,-52.87295542127819,56.616013619154046,-155.47876043528203,3.0828217604809804,,,,2,0,3,3
1788945785.961005,874187354.0,-7.73046875,-4.40234375,2.9921875,-0.08203125,-0.013671875,-0.025390625,17.875,7.6875,-31.0625,17.875,7.6875,-31.0625,0.24455263767054566,-0.5691032119660836,-0.10200495370579861,0.7784025507137958,-52.831970647928586,56.72967708500081,115.09072701069492,0.373779296875,0.33148193359375,0.47357177734375,-0.725341796875,-52.93867829080108,56.60522443455216,-155.49478436449772,2.9387141075601444,,,,2,0,3,3
1788945785.9703176,874191060.0,-7.765625,-4.40234375,3.03125,-0.060546875,-0.015625,-0.009765625,17.875,7.6875,-31.0625,17.875,7.6875,-31.0625,0.24453740567905985,-0.5690913649678211,-0.10228265401239484,0.7783795566630703,-52.86467600427869,56.711161620610355,115.08234807070588,0.373779296875,0.33148193359375,0.47357177734375,-0.725341796875,-52.93867829080108,56.60522443455216,-155.49478436449772,2.908039955912485,,,,2,0,3,3
1788945785.9793453,874194766.0,-7.8046875,-4.40234375,3.03125,-0.0546875,-0.02734375,-0.001953125,17.875,7.6875,-31.0625,17.875,7.6875,-31.0625,0.2445119523870569,-0.5690645687209809,-0.1025484080435031,0.7783721769012668,-52.89197239065599,56.69291152339446,115.07924125413341,0.3739013671875,0.33123779296875,0.47381591796875,-0.7252197265625,-52.971553569721785,56.59098113251045,-155.48475890941015,2.950881237725314,,,,2,0,3,3
1788945785.9793453,874199225.0,-7.80859375,-4.32421875,3.03125,-0.046875,-0.025390625,0.005859375,21.0,7.3125,-38.25,21.0,7.3125,-38.25,0.24450249600383112,-0.5690674859113702,-0.10282353490504664,0.7783367180057996,-52.92782662782263,56.67534325584449,115.06703615220097,0.3739013671875,0.33123779296875,0.47381591796875,-0.7252197265625,-52.971553569721785,56.59098113251045,-155.48475890941015,2.92121249660619,,,,2,0,3,3
1788945785.9919086,874202932.0,-7.84375,-4.32421875,3.03125,-0.033203125,-0.02734375,0.009765625,21.0,7.3125,-38.25,21.0,7.3125,-38.25,0.24449789602533817,-0.5690697790685701,-0.10302486371926044,0.7783098630016579,-52.95424577542447,56.66236143942084,115.0577222758701,0.37408447265625,0.33111572265625,0.473876953125,-0.72515869140625,-52.96777460258248,56.59115867547398,-155.4541612995509,2.855128679459008,,,,2,0,3,3
1788945785.993876,874207361.0,-7.84765625,-4.28515625,2.9921875,-0.033203125,-0.02734375,0.009765625,21.0,7.3125,-38.25,21.0,7.3125,-38.25,0.24447292306055443,-0.569098049015694,-0.10324604734680733,0.7782677265594531,-52.98734521202016,56.651212447993515,115.04520773242447,0.37408447265625,0.33111572265625,0.473876953125,-0.72515869140625,-52.96777460258248,56.59115867547398,-155.4541612995509,2.8317936473798313,,,,2,0,3,3
1788945785.9958436,874210468.0,-7.84765625,-4.28515625,3.03125,-0.01953125,-0.025390625,0.017578125,21.25,8.6875,-38.4375,21.25,8.6875,-38.4375,0.2444448793063244,-0.5690732584274811,-0.10340682322269859,0.778273317308666,-53.00118579209457,56.64026679588853,115.0470826327077,0.37408447265625,0.33111572265625,0.473876953125,-0.72515869140625,-52.96777460258248,56.59115867547398,-155.4541612995509,2.8135901720960494,,,,2,0,2,3
1788945786.0022752,874215150.0,-7.8828125,-4.25,3.0703125,0.0,-0.01953125,0.01171875,21.25,8.6875,-38.4375,21.25,8.6875,-38.4375,0.244430964176813,-0.5690222636556357,-0.10362150671301103,0.7782864193613653,-53.01748377295077,56.62291850744579,115.04968334828955,0.37420654296875,0.33099365234375,0.473876953125,-0.72509765625,-52.951382039268395,56.58057190520182,-155.42311897777077,2.9764451230460978,,,,2,0,2,3
1788945786.000322,874218557.0,-7.8828125,-4.2109375,3.0703125,0.0,-0.01953125,0.015625,21.25,8.6875,-38.4375,21.25,8.6875,-38.4375,0.2444072027747462,-0.5689853953878738,-0.10377336147938657,0.7783006029256289,-53.027910025496496,56.61140666704672,115.05383322643485,0.37420654296875,0.33099365234375,0.473876953125,-0.72509765625,-52.951382039268395,56.58057190520182,-155.42311897777077,2.9598618441467464,,,,2,0,2,3
1788945786.0140376,874226616.0,-7.92578125,-4.09375,3.0703125,0.0078125,-0.02734375,0.015625,22.0625,6.875,-37.75,22.0625,6.875,-37.75,0.24429210571847612,-0.5690704104760521,-0.10338879591872874,0.778325762057717,-52.98795275412428,56.650235341039846,115.07208806262749,0.37432861328125,0.33099365234375,0.47381591796875,-0.72515869140625,-52.934785673965166,56.59205880787418,-155.4008775680819,2.7196829066613133,,,,2,0,2,3
1788945786.0140376,874230199.0,-7.95703125,-4.09375,3.0703125,0.00390625,-0.02734375,0.013671875,22.6875,5.9375,-31.625,22.6875,5.9375,-31.625,0.24425534619283087,-0.5690961806950356,-0.10321624520808541,0.778341358081201,-52.96840786593666,56.66584687416883,115.08057366078465,0.37432861328125,0.33099365234375,0.47381591796875,-0.72515869140625,-52.934785673965166,56.59205880787418,-155.4008775680819,2.740640731362974,,,,2,0,3,3
1788945786.0249119,874234682.0,-7.921875,-4.09375,3.109375,0.00390625,-0.03125,0.015625,22.6875,5.9375,-31.625,22.6875,5.9375,-31.625,0.2442107743403034,-0.56911054802011,-0.10299670554164878,0.7783739207321417,-52.939795898785796,56.68418714899713,115.09488083265306,0.37445068359375,0.33087158203125,0.4737548828125,-0.72515869140625,-52.906884238919744,56.58091836821732,-155.36435800217464,2.884260865628026,,,,2,0,3,3
1788945786.0296206,874238164.0,-7.88671875,-4.05859375,3.109375,0.00390625,-0.03515625,0.005859375,18.125,6.625,-31.875,18.125,6.625,-31.875,0.24409618844623499,-0.569027009243242,-0.10311314957424977,0.7784555169838479,-52.929654888636044,56.67684080205293,115.12443869694086,0.37445068359375,0.33087158203125,0.4737548828125,-0.72515869140625,-52.906884238919744,56.58091836821732,-155.36435800217464,2.8700460847534366,,,,2,0,3,3
1788945786.0296206,874242071.0,-7.88671875,-4.05859375,3.109375,0.001953125,-0.041015625,0.013671875,18.125,6.625,-31.875,18.125,6.625,-31.875,0.2439483339907894,-0.5689308484552216,-0.10323657127421162,0.7785557850088102,-52.915537765415785,56.67002590181881,115.1614122269634,0.37457275390625,0.330810546875,0.4736328125,-0.7252197265625,-52.87131213235631,56.57842964064363,-155.32783936039738,2.7983037238499957,,,,2,0,3,3
1788945786.0360358,874247254.0,-7.921875,-4.01953125,3.109375,0.001953125,-0.03515625,0.017578125,18.125,6.625,-31.875,18.125,6.625,-31.875,0.24367705835573353,-0.5688619893251426,-0.10323811806947683,0.7786908367957148,-52.88293276240163,56.68063102446588,115.21754886807038,0.37457275390625,0.330810546875,0.4736328125,-0.7252197265625,-52.87131213235631,56.57842964064363,-155.32783936039738,2.7992234342508735,,,,2,0,3,3
1788945786.0399709,874249807.0,-7.88671875,-4.01953125,3.109375,0.001953125,-0.03515625,0.017578125,18.625,6.3125,-30.8125,18.625,6.3125,-30.8125,0.24361220168688288,-0.5688543171136964,-0.1031183453217185,0.778732603624948,-52.86128441256232,56.691826534042754,115.2348765453356,0.37457275390625,0.330810546875,0.4736328125,-0.7252197265625,-52.87131213235631,56.57842964064363,-155.32783936039738,2.813234082038011,,,,2,0,3,3
1788945786.0455022,874254489.0,-7.88671875,-4.05859375,3.1484375,0.001953125,-0.033203125,0.015625,18.625,6.3125,-30.8125,18.625,6.3125,-30.8125,0.24352651579359033,-0.5687979626208631,-0.10290224740845123,0.7788291476967714,-52.81537540893634,56.70695641143336,115.2701681333673,0.374755859375,0.3306884765625,0.47357177734375,-0.7252197265625,-52.84091278019441,56.57329614019533,-155.28297582918944,2.8469899998855954,,,,2,0,3,3
1788945786.044449,874257696.0,-7.8046875,-4.05859375,3.109375,-0.001953125,-0.044921875,0.01953125,18.625,6.3125,-30.8125,18.625,6.3125,-30.8125,0.24347822354885995,-0.5687572323464767,-0.10275518023819949,0.7788934062150497,-52.784295971838915,56.716477511519344,115.2931457220012,0.374755859375,0.3306884765625,0.47357177734375,-0.7252197265625,-52.84091278019441,56.57329614019533,-155.28297582918944,2.8628189666278963,,,,2,0,3,3
1788945786.0464022,874262179.0,-7.8046875,-4.09375,3.109375,0.0,-0.0390625,0.009765625,18.75,7.0625,-31.75,18.75,7.0625,-31.75,0.24345673981339708,-0.5686269255667441,-0.10297557515494878,0.7789661522052496,-52.78426658180253,56.693185886928646,115.31301599976084,0.37493896484375,0.33056640625,0.47344970703125,-0.7252197265625,-52.795391929970926,56.56339922398028,-155.22928058141946,2.9713406630557277,,,,2,0,3,3
1788945786.044449,874267461.0,-7.8046875,-4.1328125,3.1484375,-0.009765625,-0.04296875,0.015625,18.75,7.0625,-31.75,18.75,7.0625,-31.75,0.2434399605475752,-0.5684419032665607,-0.10323462998673895,0.7790721400427474,-52.77814757978469,56.662894490041474,115.34164690498108,0.37493896484375,0.33056640625,0.47344970703125,-0.7252197265625,-52.795391929970926,56.56339922398028,-155.22928058141946,2.938482544611273,,,,2,0,3,3
1788945786.0626605,874272544.0,-7.8046875,-4.1328125,3.18359375,-0.00390625,-0.04296875,0.017578125,18.3125,7.4375,-32.5,18.3125,7.4375,-32.5,0.24340302444138506,-0.5682623147304912,-0.1034727502811399,0.779183097416254,-52.76911692263705,56.63558792349452,115.37321849249544,0.3751220703125,0.3304443359375,0.473388671875,-0.72528076171875,-52.76867098851698,56.562450192079055,-155.1878479653399,2.711738888781019,,,,2,0,3,3
1788945786.0665457,874277427.0,-7.8046875,-3.98046875,2.95703125,-0.013671875,-0.060546875,0.013671875,18.3125,7.4375,-32.5,18.3125,7.4375,-32.5,0.2432630814141364,-0.5682066127816535,-0.10367795260475343,0.7792401430597539,-52.77483419113572,56.625915684442155,115.3965529159915,0.3751220703125,0.3304443359375,0.473388671875,-0.72528076171875,-52.76867098851698,56.562450192079055,-155.1878479653399,2.6882959407895277,,,,2,0,3,3
1788945786.0704808,874280980.0,-7.80859375,-4.171875,3.18359375,-0.013671875,-0.060546875,0.013671875,17.5,6.1875,-31.6875,17.5,6.1875,-31.6875,0.24326984867669793,-0.5680437305167044,-0.10384493283082388,0.7793345436145146,-52.763014703109064,56.60204606987512,115.42125670535599,0.3751220703125,0.3304443359375,0.473388671875,-0.72528076171875,-52.76867098851698,56.562450192079055,-155.1878479653399,2.6640490409637807,,,,2,0,3,3
1788945786.0721362,874286563.0,-7.73046875,-4.36328125,3.453125,-0.015625,-0.076171875,-0.001953125,17.5,6.1875,-31.6875,17.5,6.1875,-31.6875,0.24333193114472867,-0.5677290191979923,-0.1040597005797081,0.7795158181596601,-52.72946705180164,56.56021358231722,115.46649172391217,0.37530517578125,0.33026123046875,0.47332763671875,-0.72528076171875,-52.73454852317984,56.5480975343128,-155.1375886160188,2.7431094822059747,,,,2,0,3,3
1788945786.0792449,874288869.0,-7.765625,-4.4765625,3.375,-0.015625,-0.052734375,0.005859375,17.5,6.1875,-31.6875,17.5,6.1875,-31.6875,0.24336374865039043,-0.5676331516429284,-0.10415983916335653,0.7795623252211523,-52.72468444179085,56.54441031298009,115.47659481839156,0.37530517578125,0.33026123046875,0.47332763671875,-0.72528076171875,-52.73454852317984,56.5480975343128,-155.1375886160188,2.7288776044322804,,,,2,0,3,3
1788945786.0839653,874292575.0,-7.80859375,-4.40234375,3.22265625,-0.009765625,-0.037109375,0.029296875,17.5,6.1875,-31.6875,17.5,6.1875,-31.6875,0.24339155205071278,-0.5675364808397146,-0.10431283534511777,0.7796035708542385,-52.72638962229184,56.525273997206874,115.4849444743261,0.37548828125,0.33001708984375,0.4732666015625,-0.725341796875,-52.7003300413933,56.52873278305164,-155.0853389267232,2.711113940974585,,,,2,0,3,3
1788945786.080733,874297058.0,-7.92578125,-4.28515625,3.0703125,0.0,-0.033203125,0.041015625,17.5,6.1875,-31.6875,17.5,6.1875,-31.6875,0.2433447034052011,-0.5675538095255706,-0.10443199473686403,0.7795896273636063,-52.742442432901974,56.5214277914933,115.48289341259029,0.37548828125,0.33001708984375,0.4732666015625,-0.725341796875,-52.7003300413933,56.52873278305164,-155.0853389267232,2.698844212011081,,,,2,0,3,3
1788945786.0846682,874300511.0,-7.921875,-4.25,3.03125,0.0,-0.033203125,0.041015625,20.4375,7.4375,-37.5625,20.4375,7.4375,-37.5625,0.2432872260904698,-0.5675683503290136,-0.10452132614309843,0.7795850086470973,-52.75329726668917,56.51997029256907,115.48448128904815,0.37548828125,0.33001708984375,0.4732666015625,-0.725341796875,-52.7003300413933,56.52873278305164,-155.0853389267232,2.6899878375976947,,,,2,0,3,3
1788945786.0846682,874305194.0,-7.953125,-4.2109375,3.03125,0.02734375,-0.037109375,0.041015625,20.4375,7.4375,-37.5625,20.4375,7.4375,-37.5625,0.2432185316758602,-0.5675810554621944,-0.10456963805351151,0.779590714495252,-52.75764954836324,56.52175116171892,115.49013688096471,0.375732421875,0.33001708984375,0.47314453125,-0.725341796875,-52.65993372818887,56.54321283055581,-155.0342646450455,2.504658098240018,,,,2,0,3,3
1788945786.0939536,874308600.0,-7.921875,-4.28515625,3.18359375,0.03515625,-0.048828125,0.03515625,20.4375,7.4375,-37.5625,20.4375,7.4375,-37.5625,0.24323832721941294,-0.5674762252533488,-0.10466889821877275,0.7796475304195997,-52.75009259033375,56.506029439712954,115.5039666518557,0.375732421875,0.33001708984375,0.47314453125,-0.725341796875,-52.65993372818887,56.54321283055581,-155.0342646450455,2.4891648560086965,,,,2,0,3,3
1788945786.0959067,874316460.0,-7.953125,-4.32421875,3.26171875,0.025390625,-0.05078125,0.029296875,20.9375,8.1875,-38.4375,20.9375,8.1875,-38.4375,0.24325868379604076,-0.5671720593302321,-0.10493425539791222,0.7798268204652923,-52.72279098357988,56.46407927715804,115.55081169266334,0.37591552734375,0.3299560546875,0.47283935546875,-0.72540283203125,-52.5765936094674,56.532360790987866,-154.96295010289478,2.696644067128891,,,,2,0,2,3
1788945786.0959067,874320243.0,-7.953125,-4.25,3.109375,0.01953125,-0.037109375,0.05078125,21.3125,8.1875,-38.375,21.3125,8.1875,-38.375,0.2431986515218998,-0.5671378649756696,-0.10502745240550389,0.7798578666975017,-52.72383656783781,56.45880615390633,115.56263852561936,0.37591552734375,0.3299560546875,0.47283935546875,-0.72540283203125,-52.5765936094674,56.532360790987866,-154.96295010289478,2.6862414670269934,,,,2,0,2,3
1788945786.1125708,874324525.0,-7.9921875,-4.2109375,3.03125,0.03125,-0.037109375,0.0546875,21.3125,8.1875,-38.375,21.3125,8.1875,-38.375,0.24310613395255531,-0.5671441143699296,-0.10505357500297811,0.7798786492456915,-52.72234511024326,56.462959747720426,115.57435116583571,0.37615966796875,0.3299560546875,0.47259521484375,-0.7254638671875,-52.50959509929966,56.54145130143671,-154.8975962074638,2.5659638431402887,,,,2,0,2,3
1788945786.1125708,874328785.0,-7.99609375,-4.171875,3.03125,0.03515625,-0.048828125,0.05078125,21.875,5.8125,-32.8125,21.875,5.8125,-32.8125,0.2430387065306303,-0.5671570494052763,-0.1047779516563759,0.7799273359002833,-52.68442632106918,56.486149838797196,115.59527548201676,0.37615966796875,0.3299560546875,0.47259521484375,-0.7254638671875,-52.50959509929966,56.54145130143671,-154.8975962074638,2.598076717951,,,,2,0,3,3
1788945786.1125708,874332691.0,-7.953125,-4.2109375,3.1484375,0.0390625,-0.05078125,0.046875,21.875,5.8125,-32.8125,21.875,5.8125,-32.8125,0.24300425504359394,-0.5671391517917445,-0.10451157924235183,0.7799868231835191,-52.643492804509755,56.504442398040936,115.61704624608275,0.37640380859375,0.3299560546875,0.47235107421875,-0.72552490234375,-52.44259249204343,56.550519211988096,-154.8322432636196,2.5057163170937784,,,,2,0,3,3
1788945786.127901,874336997.0,-7.95703125,-4.25,3.22265625,0.03515625,-0.052734375,0.052734375,21.875,5.8125,-32.8125,21.875,5.8125,-32.8125,0.24296488830387528,-0.5670998370261556,-0.10421683930374434,0.7800671049992627,-52.59402761437525,56.523257000647924,115.64537118721337,0.37640380859375,0.3299560546875,0.47235107421875,-0.72552490234375,-52.44259249204343,56.550519211988096,-154.8322432636196,2.5392482752535295,,,,2,0,3,3
1788945786.1187866,874340627.0,-7.95703125,-4.25,3.22265625,0.03515625,-0.052734375,0.052734375,18.4375,7.5625,-31.75,18.4375,7.5625,-31.75,0.24293279206362134,-0.5669712431387984,-0.10430835065603428,0.7801583403240887,-52.577087115433905,56.50924302843559,115.6723920514428,0.37640380859375,0.3299560546875,0.47235107421875,-0.72552490234375,-52.44259249204343,56.550519211988096,-154.8322432636196,2.524716059286293,,,,2,0,3,3
1788945786.1276407,874343433.0,-7.921875,-4.2109375,3.18359375,0.044921875,-0.04296875,0.064453125,18.4375,7.5625,-31.75,18.4375,7.5625,-31.75,0.2428977756954889,-0.5668898274915922,-0.10435631407737532,0.7802219900521397,-52.5640748164107,56.50188557207578,115.69223519141408,0.37664794921875,0.33001708984375,0.47198486328125,-0.7255859375,-52.349078613095415,56.559212816650046,-154.75451912131354,2.5728364374655164,,,,2,0,3,3
1788945786.127901,874348316.0,-7.953125,-4.1328125,3.1484375,0.046875,-0.041015625,0.0625,18.4375,7.5625,-31.75,18.4375,7.5625,-31.75,0.24278886370132446,-0.5667809159955283,-0.10442257100655841,0.7803261418088401,-52.54277072401111,56.495519272328885,115.72824305290636,0.37664794921875,0.33001708984375,0.47198486328125,-0.7255859375,-52.349078613095415,56.559212816650046,-154.75451912131354,2.563043747819318,,,,2,0,3,3
1788945786.1455867,874356175.0,-7.88671875,-4.09375,3.18359375,0.05078125,-0.0390625,0.0625,18.375,7.0,-32.125,18.375,7.0,-32.125,0.24257736196453225,-0.5664901243441582,-0.10449038840995878,0.7805939541226312,-52.47699915904814,56.48108090314038,115.81732902584969,0.37689208984375,0.330078125,0.4716796875,-0.7255859375,-52.26698825859378,56.56846706997292,-154.68210011512716,2.683196548999289,,,,2,0,3,3
1788945786.1465778,874359458.0,-7.88671875,-4.05859375,3.18359375,0.05078125,-0.037109375,0.05078125,19.1875,6.625,-31.375,19.1875,6.625,-31.375,0.24251479975000104,-0.566453396736085,-0.10423958536269788,0.7806735745955419,-52.43221380994138,56.49847297951085,115.84663876576707,0.37689208984375,0.330078125,0.4716796875,-0.7255859375,-52.26698825859378,56.56846706997292,-154.68210011512716,2.70958562679779,,,,2,0,3,3
1788945786.1446247,874367241.0,-7.84375,-3.98046875,3.18359375,0.046875,-0.041015625,0.056640625,19.1875,6.625,-31.375,19.1875,6.625,-31.375,0.2423179187117571,-0.5663222892995243,-0.10366072281594925,0.7809068737429727,-52.315570720392145,56.5380559688984,115.9320140930877,0.37713623046875,0.33013916015625,0.4713134765625,-0.7257080078125,-52.177095875920116,56.581288087285984,-154.60784100242796,2.6047933465435733,,,,2,0,3,3
1788945786.1465778,874371424.0,-7.84765625,-3.98046875,3.22265625,0.05078125,-0.037109375,0.05078125,19.1875,6.625,-31.375,19.1875,6.625,-31.375,0.2422377917963891,-0.566225042271005,-0.10336112140749391,0.7810419529783231,-52.2505181960631,56.55498199516684,115.97892291839348,0.37713623046875,0.33013916015625,0.4713134765625,-0.7257080078125,-52.177095875920116,56.581288087285984,-154.60784100242796,2.636624812403014,,,,2,0,3,3
1788945786.1630778,874375130.0,-7.88671875,-3.98046875,3.22265625,0.046875,-0.029296875,0.046875,19.1875,6.625,-31.375,19.1875,6.625,-31.375,0.24216015637906407,-0.5661630502178849,-0.10309662078344568,0.7811459185155372,-52.19753742044068,56.57214313509468,116.01654183445821,0.3773193359375,0.33026123046875,0.47100830078125,-0.72576904296875,-52.1048766910483,56.59791523150762,-154.55263647075225,2.5844010654913023,,,,2,0,3,3
1788945786.1630778,874379213.0,-7.84375,-4.01953125,3.22265625,0.05078125,-0.03515625,0.046875,18.125,6.125,-31.9375,18.125,6.125,-31.9375,0.24209448064939945,-0.5660351572233085,-0.10283664723106803,0.7812932146208329,-52.132270655432144,56.58320704852072,116.06562635303726,0.3773193359375,0.33026123046875,0.47100830078125,-0.72576904296875,-52.1048766910483,56.59791523150762,-154.55263647075225,2.611319685196369,,,,2,0,3,3
1788945786.1630778,874382619.0,-7.84375,-4.01953125,3.22265625,0.044921875,-0.02734375,0.041015625,18.125,6.125,-31.9375,18.125,6.125,-31.9375,0.24204264244982712,-0.5659383065459624,-0.10263206820494855,0.7814063289964883,-52.08167183441272,56.59219580418566,116.10351349251778,0.37750244140625,0.330322265625,0.470703125,-0.725830078125,-52.02895764729442,56.60530509571657,-154.49199510725663,2.657177319123368,,,,2,0,3,3
1788945786.1611247,874387049.0,-7.921875,-4.01953125,3.18359375,0.044921875,-0.02734375,0.041015625,18.125,6.125,-31.9375,18.125,6.125,-31.9375,0.2419126978971716,-0.565929431760856,-0.10233366896321712,0.7814921273176546,-52.0315656589701,56.61866671609259,116.14011507764187,0.37750244140625,0.330322265625,0.470703125,-0.725830078125,-52.02895764729442,56.60530509571657,-154.49199510725663,2.692287343745999,,,,2,0,3,3
1788945786.1795921,874391332.0,-7.92578125,-3.98046875,3.1484375,0.037109375,-0.0234375,0.0390625,17.625,5.6875,-37.5,17.625,5.6875,-37.5,0.24171895208685643,-0.5659254930024459,-0.10225273584079979,0.7815655203404525,-52.00679048302754,56.6348832655046,116.17498750935222,0.37750244140625,0.330322265625,0.470703125,-0.725830078125,-52.02895764729442,56.60530509571657,-154.49199510725663,2.704069482751151,,,,2,0,3,3
1788945786.1795921,874394738.0,-7.92578125,-3.94140625,3.18359375,0.03125,-0.02734375,0.03515625,17.625,5.6875,-37.5,17.625,5.6875,-37.5,0.2415453734039745,-0.5658782382786108,-0.10215552241922654,0.7816661059999244,-51.97224349793573,56.64764050400805,116.21642401954914,0.37762451171875,0.33038330078125,0.470458984375,-0.72589111328125,-51.97071667971261,56.6114955783994,-154.44859459600818,2.715921200212339,,,,2,0,3,3
1788945786.177639,874398444.0,-7.95703125,-4.05859375,3.22265625,0.021484375,-0.046875,0.033203125,17.625,5.6875,-37.5,17.625,5.6875,-37.5,0.24140481385710447,-0.5657553855759171,-0.10223339858227518,0.7817882652948814,-51.94743451711173,56.641105091691685,116.25960581988545,0.37762451171875,0.33038330078125,0.470458984375,-0.72589111328125,-51.97071667971261,56.6114955783994,-154.44859459600818,2.7060259615635447,,,,2,0,3,3
