pc_unix,dev_us,ax,ay,az,gx,gy,gz,mx_raw,my_raw,mz_raw,mx,my,mz,host_qw,host_qx,host_qy,host_qz,host_roll,host_pitch,host_yaw,chip_qw,chip_qx,chip_qy,chip_qz,chip_roll,chip_pitch,chip_yaw,diff_deg,rel_roll,rel_pitch,rel_yaw,cal_acc,cal_gyr,cal_mag,cal_rv
1788945190.273963,278471863.0,-8.76171875,0.5390625,3.8359375,-0.005859375,0.046875,-0.046875,18.5625,1.125,-40.125,18.5625,1.125,-40.125,-0.04263771846043541,-0.5421636790059673,-0.0005200186252853158,0.8391902643094905,6.281094574621169,65.50553214461763,-170.13987762508918,0.61956787109375,0.38507080078125,0.38238525390625,-0.567138671875,6.031132109228505,65.58899817001587,-81.0538501628187,2.772652323019791,,,,3,0,2,3
1788945190.2759306,278476139.0,-8.7265625,0.46484375,3.796875,-0.005859375,0.046875,-0.046875,18.5625,1.125,-40.125,18.5625,1.125,-40.125,-0.042588782518958854,-0.5423686847094952,-0.0006793780475113543,0.8390601551113682,6.246177272006489,65.53546353645613,-170.16583800837142,0.61956787109375,0.38507080078125,0.38238525390625,-0.567138671875,6.031132109228505,65.58899817001587,-81.0538501628187,2.7510218639356516,,,,3,0,2,3
1788945190.279292,278479746.0,-8.7265625,0.46484375,3.796875,0.001953125,0.046875,-0.052734375,18.5625,1.125,-40.125,18.5625,1.125,-40.125,-0.04253304676828123,-0.5425424882181041,-0.000805804050853247,0.838950498593658,6.216395134701394,65.5608435103901,-170.18992880517155,0.61932373046875,0.3851318359375,0.38262939453125,-0.56719970703125,5.977760038127477,65.621173055737,-81.11464169774439,2.7527705029555096,,,,3,0,2,3
1788945190.2854266,278482929.0,-8.69140625,0.46484375,3.8359375,-0.001953125,0.0390625,-0.05078125,14.375,-0.0625,-34.3125,14.375,-0.0625,-34.3125,-0.042458132597668174,-0.5426401644238866,-0.0007153959893575753,0.8388912010141211,6.230423660865235,65.57355122531432,-170.1896993203431,0.61932373046875,0.3851318359375,0.38262939453125,-0.56719970703125,5.977760038127477,65.621173055737,-81.11464169774439,2.7610550799793363,,,,3,0,3,3
1788945190.2942164,278487611.0,-8.73046875,0.5,3.796875,0.005859375,0.0390625,-0.0546875,14.375,-0.0625,-34.3125,14.375,-0.0625,-34.3125,-0.042346320017475125,-0.5428050833137885,-0.0005928510825299718,0.8387902474619519,6.249363550708856,65.59525283075453,-170.19034416080652,0.619140625,0.3851318359375,0.38287353515625,-0.5672607421875,5.91894759039669,65.650228772007,-81.17808785743735,2.726231274105335,,,,3,0,3,3
1788945190.29114,278491641.0,-8.69140625,0.5,3.76171875,0.005859375,0.0390625,-0.0546875,14.375,-0.0625,-34.3125,14.375,-0.0625,-34.3125,-0.04225057495964706,-0.5429518474299706,-0.0004936769906294354,0.8387001469959274,6.264510044435804,65.61465648970245,-170.19149427707217,0.619140625,0.3851318359375,0.38287353515625,-0.5672607421875,5.91894759039669,65.650228772007,-81.17808785743735,2.7350638213116754,,,,3,0,3,3
1788945190.295133,278495247.0,-8.69140625,0.5390625,3.76171875,-0.001953125,0.033203125,-0.048828125,15.625,0.8125,-34.375,15.625,0.8125,-34.375,-0.042236262336131494,-0.5431085046609395,-0.0005328597507242614,0.8385994075655657,6.260290335636742,65.63640421145108,-170.19379669554934,0.619140625,0.3851318359375,0.38287353515625,-0.5672607421875,5.91894759039669,65.650228772007,-81.17808785743735,2.7286178405821824,,,,3,0,3,3
1788945190.3000052,278499154.0,-8.7265625,0.46484375,3.76171875,0.0,0.02734375,-0.046875,15.625,0.8125,-34.375,15.625,0.8125,-34.375,-0.042182557391262365,-0.5432721186473622,-0.0006268719845357677,0.8384960608040173,6.237757701509315,65.66002580867256,-170.21314436411592,0.61895751953125,0.3851318359375,0.383056640625,-0.56732177734375,5.868262188420836,65.66878292657925,-81.2298318485989,2.7751869559035036,,,,3,0,3,3
1788945190.3040183,278502936.0,-8.7578125,0.5,3.76171875,0.001953125,0.01953125,-0.04296875,15.1875,1.5625,-32.75,15.1875,1.5625,-32.75,-0.04215502947035858,-0.5433887918367948,-0.0007983857178581347,0.8384216940041254,6.199062435157313,65.67800213868661,-170.240019173891,0.61895751953125,0.3851318359375,0.383056640625,-0.56732177734375,5.868262188420836,65.66878292657925,-81.2298318485989,2.7537384192718393,,,,3,0,3,3
1788945190.3097956,278507619.0,-8.7578125,0.46484375,3.68359375,-0.0078125,0.017578125,-0.044921875,15.1875,1.5625,-32.75,15.1875,1.5625,-32.75,-0.042108013125825856,-0.5435404630627143,-0.0010145893173741122,0.8383255041167975,6.148569275961416,65.70136916335308,-170.2766389135486,0.61883544921875,0.38507080078125,0.38323974609375,-0.5673828125,5.812219235083826,65.68420373343328,-81.2841263845167,2.721727576438628,,,,3,0,3,3
1788945190.3097956,278510396.0,-8.7265625,0.46484375,3.76171875,-0.0078125,0.017578125,-0.044921875,15.1875,1.5625,-32.75,15.1875,1.5625,-32.75,-0.04208741851851562,-0.5436179636517401,-0.0011626746759530778,0.8382760923378293,6.114522985000945,65.71371458773889,-170.30019614936188,0.61883544921875,0.38507080078125,0.38323974609375,-0.5673828125,5.812219235083826,65.68420373343328,-81.2841263845167,2.7033403124807394,,,,3,0,3,3
1788945190.3097956,278515155.0,-8.7578125,0.42578125,3.76171875,-0.009765625,0.0,-0.046875,15.4375,1.5,-33.3125,15.4375,1.5,-33.3125,-0.04203180460785031,-0.5437177093712194,-0.0014209783410431942,0.8382137917846949,6.05054603504642,65.73058519692984,-170.34747940895207,0.61883544921875,0.38507080078125,0.38323974609375,-0.5673828125,5.812219235083826,65.68420373343328,-81.2841263845167,2.6713101917911843,,,,3,0,3,3
1788945190.3097956,278519061.0,-8.7265625,0.38671875,3.72265625,-0.0078125,-0.005859375,-0.04296875,15.4375,1.5,-33.3125,15.4375,1.5,-33.3125,-0.04197827434814127,-0.5437915565131207,-0.001623939452320819,0.838168199330209,5.998544083375784,65.74328755004004,-170.3871764886104,0.61871337890625,0.38494873046875,0.38336181640625,-0.5675048828125,5.7461508192493875,65.6860056204624,-81.3482294330049,2.7005511638191764,,,,3,0,3,3
1788945190.3262625,278522844.0,-8.7578125,0.38671875,3.64453125,-0.0078125,-0.0078125,-0.0390625,14.8125,0.0625,-33.5625,14.8125,0.0625,-33.5625,-0.04190188322181054,-0.5438882404631965,-0.0016149253895516539,0.8381093043775973,5.9933283763820215,65.756820139155,-170.39956550076406,0.61871337890625,0.38494873046875,0.38336181640625,-0.5675048828125,5.7461508192493875,65.6860056204624,-81.3482294330049,2.699938113720549,,,,3,0,3,3
1788945190.3262625,278526221.0,-8.7265625,0.38671875,3.76171875,-0.0078125,-0.0078125,-0.0390625,14.8125,0.0625,-33.5625,14.8125,0.0625,-33.5625,-0.041823593554145715,-0.5439610311185031,-0.0015686436395838696,0.838066061240905,5.995443693869121,65.76670742628484,-170.40784595987483,0.61871337890625,0.38494873046875,0.38336181640625,-0.5675048828125,5.7461508192493875,65.6860056204624,-81.3482294330049,2.703877495107911,,,,3,0,3,3
1788945190.3243093,278530704.0,-8.76171875,0.34765625,3.76171875,0.001953125,-0.025390625,-0.03125,14.8125,0.0625,-33.5625,14.8125,0.0625,-33.5625,-0.041700065692915754,-0.5440346545170318,-0.0015143840427919903,0.8380245258026232,5.992612374327894,65.77694100439327,-170.42548727928644,0.61865234375,0.38482666015625,0.3834228515625,-0.56756591796875,5.7013558280407475,65.67726069473721,-81.38126988505171,2.8501046904350327,,,,3,0,3,3
1788945190.3262625,278534510.0,-8.76171875,0.38671875,3.72265625,0.00390625,-0.02734375,-0.0390625,14.8125,0.0625,-33.5625,14.8125,0.0625,-33.5625,-0.041605289343643936,-0.5440955430994295,-0.0014646642480277434,0.8379897938737734,5.992509125496498,65.78529785888928,-170.43762708556653,0.61865234375,0.38482666015625,0.3834228515625,-0.56756591796875,5.7013558280407475,65.67726069473721,-81.38126988505171,2.854243817982547,,,,3,0,3,3
1788945190.338432,278538016.0,-8.76171875,0.34765625,3.72265625,0.00390625,-0.03515625,-0.041015625,14.8125,0.0625,-33.5625,14.8125,0.0625,-33.5625,-0.04149976356876956,-0.5441432464212367,-0.0014396935488585985,0.8379640948634844,5.984440052284869,65.7922275605831,-170.45656205307301,0.61865234375,0.38470458984375,0.38336181640625,-0.5677490234375,5.6667338333426285,65.66707962473932,-81.43320302429545,2.7029733383298584,,,,3,0,3,3
1788945190.3433168,278541999.0,-8.7578125,0.30859375,3.72265625,-0.001953125,-0.052734375,-0.037109375,18.75,0.875,-38.8125,18.75,0.875,-38.8125,-0.04140404984056704,-0.54415864431873,-0.0015845935275017333,0.8379585691031237,5.936889714078036,65.79663156361872,-170.5000636930189,0.61865234375,0.38470458984375,0.38336181640625,-0.5677490234375,5.6667338333426285,65.66707962473932,-81.43320302429545,2.6845537704916214,,,,3,0,3,3
1788945190.3433168,278546352.0,-8.73046875,0.30859375,3.72265625,-0.001953125,-0.052734375,-0.037109375,18.75,0.875,-38.8125,18.75,0.875,-38.8125,-0.041299019658216835,-0.5441745968107771,-0.001744879427157213,0.837953074197406,5.88435413513433,65.80133626136264,-170.5480494212991,0.61865234375,0.38470458984375,0.38336181640625,-0.5677490234375,5.6667338333426285,65.66707962473932,-81.43320302429545,2.6642178525327367,,,,3,0,3,3
1788945190.3503647,278550058.0,-8.69140625,0.30859375,3.76171875,0.0078125,-0.060546875,-0.03125,18.75,0.875,-38.8125,18.75,0.875,-38.8125,-0.04120273535371721,-0.5441653924623748,-0.001881598799663672,0.8379634955244759,5.837539444315357,65.80229329797862,-170.5915180531952,0.61865234375,0.38446044921875,0.38330078125,-0.56793212890625,5.60872613588823,65.63762420437934,-81.48700116351823,2.728025052906741,,,,3,0,3,3
1788945190.351451,278553641.0,-8.69140625,0.30859375,3.76171875,0.013671875,-0.0703125,-0.0390625,19.0,0.3125,-39.5,19.0,0.3125,-39.5,-0.041063969397463124,-0.5441633290909544,-0.0019028556809912345,0.837971599059438,5.811493861217944,65.80321376922556,-170.62731237108005,0.61865234375,0.38446044921875,0.38330078125,-0.56793212890625,5.60872613588823,65.63762420437934,-81.48700116351823,2.7239641119503046,,,,3,0,3,3
1788945190.361051,278558124.0,-8.69140625,0.30859375,3.796875,0.01953125,-0.072265625,-0.037109375,19.0,0.3125,-39.5,19.0,0.3125,-39.5,-0.04086228152301712,-0.5441500582245951,-0.0019163535319982681,0.8379900450912553,5.777253710341694,65.80295783558456,-170.67715345593956,0.61865234375,0.38427734375,0.38311767578125,-0.56817626953125,5.572715892821029,65.60335256959596,-81.53657360769778,2.730743630572778,,,,3,0,3,3
1788945190.3590834,278561907.0,-8.69140625,0.2734375,3.796875,0.01953125,-0.076171875,-0.029296875,19.8125,3.4375,-40.0625,19.8125,3.4375,-40.0625,-0.040798004447200865,-0.5440581655080047,-0.002095167826581385,0.8380524122326535,5.72199296374032,65.79292251919414,-170.72285127601612,0.61865234375,0.38427734375,0.38311767578125,-0.56817626953125,5.572715892821029,65.60335256959596,-81.53657360769778,2.7093798948857546,,,,3,0,2,3
1788945190.361051,278565883.0,-8.65234375,0.2734375,3.8359375,0.01953125,-0.076171875,-0.029296875,19.8125,3.4375,-40.0625,19.8125,3.4375,-40.0625,-0.04073156054414705,-0.5439502104300369,-0.0022857142919059663,0.8381252197965008,5.663044714092642,65.78083943321633,-170.77142942832512,0.61865234375,0.38427734375,0.38311767578125,-0.56817626953125,5.572715892821029,65.60335256959596,-81.53657360769778,2.686720600659294,,,,3,0,2,3
1788945190.361051,278569789.0,-8.6484375,0.234375,3.76171875,0.021484375,-0.0859375,-0.02734375,19.8125,3.4375,-40.0625,19.8125,3.4375,-40.0625,-0.040661510577200626,-0.5438425283924233,-0.0024632045096058654,0.8381979948036503,5.606656105817684,65.7686587871087,-170.81882829923873,0.61865234375,0.384033203125,0.38287353515625,-0.5684814453125,5.527039461215406,65.55552502861879,-81.59569848542777,2.734836450027168,,,,3,0,2,3
1788945190.3758585,278573749.0,-8.61328125,0.2734375,3.8359375,0.033203125,-0.09375,-0.01953125,19.375,0.3125,-39.0625,19.375,0.3125,-39.0625,-0.040415050420615016,-0.5437257132492161,-0.002481990655767396,0.8382856387732736,5.560226308720213,65.75467227331241,-170.88404236269517,0.61865234375,0.384033203125,0.38287353515625,-0.5684814453125,5.527039461215406,65.55552502861879,-81.59569848542777,2.7301303942644273,,,,3,0,2,3
1788945190.3799694,278578332.0,-8.609375,0.1953125,3.9140625,0.0234375,-0.099609375,-0.015625,19.375,0.3125,-39.0625,19.375,0.3125,-39.0625,-0.040202288986428664,-0.5434665650349007,-0.002572795587853318,0.8384636243584339,5.4964093581779085,65.7219354254412,-170.95775370850353,0.6187744140625,0.3837890625,0.382568359375,-0.56878662109375,5.502776591481797,65.5102153881924,-81.64565734892287,2.520702697416903,,,,3,0,2,3
1788945190.3810034,278581485.0,-8.609375,0.1953125,3.9140625,0.0234375,-0.099609375,-0.015625,19.375,0.3125,-39.0625,19.375,0.3125,-39.0625,-0.040052602480872335,-0.5432910929372972,-0.002635217924405565,0.8385843028557101,5.452239741279409,65.69980269205413,-171.00901225630216,0.6187744140625,0.3837890625,0.382568359375,-0.56878662109375,5.502776591481797,65.5102153881924,-81.64565734892287,2.511625401919998,,,,3,0,2,3
1788945190.3868675,278585868.0,-8.5703125,0.2734375,3.953125,0.0234375,-0.1015625,-0.009765625,15.75,0.9375,-33.6875,15.75,0.9375,-33.6875,-0.03996848860554416,-0.5430262659415357,-0.002765102340466718,0.8387594104540513,5.398788345771055,65.6658465800087,-171.05844189653652,0.6187744140625,0.3837890625,0.382568359375,-0.56878662109375,5.502776591481797,65.5102153881924,-81.64565734892287,2.495455186990993,,,,3,0,3,3
1788945190.3928814,278589574.0,-8.61328125,0.234375,3.98828125,0.01953125,-0.10546875,0.0,15.75,0.9375,-33.6875,15.75,0.9375,-33.6875,-0.03990577116164194,-0.542799839756778,-0.0028728175302248447,0.838908582807119,5.355356898528924,65.63671256634004,-171.09794708325504,0.618896484375,0.383544921875,0.3822021484375,-0.56903076171875,5.493363434619385,65.44804378746531,-81.66324098165633,2.571703080411881,,,,3,0,3,3
1788945190.3953142,278593157.0,-8.609375,0.1953125,4.02734375,0.013671875,-0.1015625,0.005859375,14.625,0.875,-34.4375,14.625,0.875,-34.4375,-0.03984779829187865,-0.5425727194018112,-0.002957391560742847,0.8390579544747607,5.318070037170685,65.60720519222036,-171.13283031959045,0.618896484375,0.383544921875,0.3822021484375,-0.56903076171875,5.493363434619385,65.44804378746531,-81.66324098165633,2.561720644867586,,,,3,0,3,3
1788945190.393361,278601039.0,-8.6875,0.15625,4.02734375,0.01953125,-0.099609375,0.009765625,14.625,0.875,-34.4375,14.625,0.875,-34.4375,-0.039688607281020076,-0.542126006508202,-0.0031615600223399752,0.8393534488270046,5.229489487613349,65.54983525359047,-171.2172954015204,0.61907958984375,0.38336181640625,0.3818359375,-0.5692138671875,5.508410094055973,65.39549774611287,-81.66087966386796,2.48218532035002,,,,3,0,3,3
1788945190.393361,278601246.0,-8.6875,0.234375,3.98828125,0.009765625,-0.10546875,0.0234375,14.625,0.875,-34.4375,14.625,0.875,-34.4375,-0.03968636388042483,-0.5421142094753624,-0.0031675256573893908,0.8393611518220647,5.2273161521061065,65.54831360462822,-171.21914975608516,0.61907958984375,0.38336181640625,0.3818359375,-0.5692138671875,5.508410094055973,65.39549774611287,-81.66087966386796,2.481495617257007,,,,3,0,3,3
1788945190.3953142,278604999.0,-8.73046875,0.34765625,3.953125,0.009765625,-0.10546875,0.0234375,14.625,0.875,-34.4375,14.625,0.875,-34.4375,-0.03970647620099114,-0.5419524101461356,-0.0033078920585197322,0.8394641378490353,5.191602867186563,65.52773657015393,-171.24141262898814,0.61907958984375,0.38336181640625,0.3818359375,-0.5692138671875,5.508410094055973,65.39549774611287,-81.66087966386796,2.46556734668688,,,,3,0,3,3
1788945190.4104836,278608605.0,-8.6484375,0.08203125,3.9140625,0.00390625,-0.103515625,0.0234375,14.625,0.875,-34.4375,14.625,0.875,-34.4375,-0.039651995375163465,-0.5417962556398793,-0.003429683271355309,0.839567015734916,5.149316413398883,65.50818719213598,-171.27798325624073,0.61932373046875,0.38311767578125,0.3814697265625,-0.5693359375,5.524610347263283,65.33342963935884,-81.64054095423826,2.5056797614386617,,,,3,0,3,3
1788945190.4144697,278613088.0,-8.7578125,0.00390625,3.953125,0.0078125,-0.107421875,0.029296875,14.625,0.875,-34.4375,14.625,0.875,-34.4375,-0.03958712156795962,-0.5416006936941314,-0.0035642574914188825,0.8396956856293439,5.101090776527789,65.48348881327004,-171.32025931206337,0.61932373046875,0.38311767578125,0.3814697265625,-0.5693359375,5.524610347263283,65.33342963935884,-81.64054095423826,2.4902375095690292,,,,3,0,3,3
1788945190.4204414,278620747.0,-8.69140625,0.08203125,3.953125,0.0234375,-0.09765625,0.046875,14.3125,2.3125,-34.375,14.3125,2.3125,-34.375,-0.039643790698896605,-0.5412959835876608,-0.00375675842575804,0.8398886323656365,5.053554217995473,65.4438661852712,-171.34685407594432,0.61962890625,0.38287353515625,0.38104248046875,-0.56939697265625,5.561694144106736,65.26105483122566,-81.58973651514636,2.6199911002937326,,,,3,0,3,3
1788945190.427401,278625130.0,-8.73046875,0.08203125,3.953125,0.021484375,-0.09375,0.052734375,14.3125,2.3125,-34.375,14.3125,2.3125,-34.375,-0.03968910954069672,-0.5411355403960421,-0.0038636777536549274,0.8399893889201019,5.029591841043436,65.42296887430167,-171.35804234027515,0.61962890625,0.38287353515625,0.38104248046875,-0.56939697265625,5.561694144106736,65.26105483122566,-81.58973651514636,2.6091699404553133,,,,3,0,3,3
1788945190.4314084,278628436.0,-8.6875,0.2734375,4.02734375,0.03125,-0.09765625,0.06640625,14.3125,2.3125,-34.375,14.3125,2.3125,-34.375,-0.03976544275663606,-0.540988556101277,-0.003916867091273042,0.8400802044340847,5.023137594894178,65.40315985815322,-171.35361358774895,0.61993408203125,0.3828125,0.380615234375,-0.5694580078125,5.633197317563766,65.21728793822716,-81.53646558538058,2.373012457384661,,,,3,0,3,3
1788945190.4353955,278632019.0,-8.65234375,0.1171875,3.953125,0.037109375,-0.08984375,0.0625,14.3125,-1.0,-34.6875,14.3125,-1.0,-34.6875,-0.039713713456429454,-0.5408496979966522,-0.003653702576713419,0.8401732414198346,5.070780548917291,65.38197335183565,-171.33195315369045,0.61993408203125,0.3828125,0.380615234375,-0.5694580078125,5.633197317563766,65.21728793822716,-81.53646558538058,2.4041383930055495,,,,3,0,3,3
1788945190.4403958,278636802.0,-8.65234375,0.15625,3.875,0.0390625,-0.08984375,0.068359375,14.3125,-1.0,-34.6875,14.3125,-1.0,-34.6875,-0.0396730860603573,-0.540708111065469,-0.0032836839638556974,0.8402678158123666,5.144469809707453,65.35924773492576,-171.29218312112013,0.6202392578125,0.38275146484375,0.380126953125,-0.5694580078125,5.718916298771329,65.15681783276061,-81.45165436375362,2.5157889113916214,,,,3,0,3,3
1788945190.4387937,278640755.0,-8.609375,0.38671875,3.98828125,0.0390625,-0.08984375,0.068359375,14.3125,-1.0,-34.6875,14.3125,-1.0,-34.6875,-0.03972033330467573,-0.540544193971052,-0.002944920356652219,0.840372296622422,5.2230198403356205,65.33327140110117,-171.23764727486218,0.6202392578125,0.38275146484375,0.380126953125,-0.5694580078125,5.718916298771329,65.15681783276061,-81.45165436375362,2.5546156173238295,,,,3,0,3,3
1788945190.4417977,278644538.0,-8.57421875,0.34765625,3.98828125,0.048828125,-0.08984375,0.080078125,17.0625,1.375,-39.25,17.0625,1.375,-39.25,-0.03981800398294639,-0.5403485845127413,-0.0029405494541018956,0.8404934782274035,5.230939552383679,65.30615972651267,-171.22180167105154,0.6202392578125,0.38275146484375,0.380126953125,-0.5694580078125,5.718916298771329,65.15681783276061,-81.45165436375362,2.556278400015481,,,,3,0,3,3
1788945190.4487638,278647644.0,-8.609375,0.34765625,3.98828125,0.0390625,-0.09375,0.08984375,17.0625,1.375,-39.25,17.0625,1.375,-39.25,-0.03991832241799799,-0.5401962580479303,-0.0029521800360490136,0.8405865898046325,5.237220632060079,65.28505534303572,-171.2060868077834,0.62054443359375,0.3828125,0.37957763671875,-0.5694580078125,5.835496959422477,65.10501541466186,-81.35390805918172,2.483602375063666,,,,3,0,3,3
1788945190.4468107,278652427.0,-8.65234375,0.5,4.02734375,0.05859375,-0.0859375,0.08984375,17.0625,1.375,-39.25,17.0625,1.375,-39.25,-0.04021790706732824,-0.5399482414083924,-0.002732786854963778,0.8407323881159293,5.32203804127491,65.24734364017213,-171.11435706613312,0.62054443359375,0.3828125,0.37957763671875,-0.5694580078125,5.835496959422477,65.10501541466186,-81.35390805918172,2.511038370068879,,,,3,0,3,3
1788945190.4612162,278660786.0,-8.6875,0.5390625,3.98828125,0.048828125,-0.08984375,0.08203125,18.0625,0.375,-39.3125,18.0625,0.375,-39.3125,-0.04054092122929396,-0.5396437793954351,-0.0019687044671824797,0.8409144720293569,5.532313990533857,65.19599464796227,-170.94034072143515,0.62091064453125,0.38287353515625,0.37896728515625,-0.5694580078125,5.9660452016699255,65.04921191445278,-81.24669518716173,2.442545512416115,,,,3,0,3,3
1788945190.4651513,278663593.0,-8.69140625,0.65625,4.06640625,0.046875,-0.087890625,0.087890625,18.0625,0.375,-39.3125,18.0625,0.375,-39.3125,-0.0406680759773764,-0.539522055360332,-0.0017186249362142693,0.8409869830766644,5.603228260133775,65.17601888775145,-170.879494734889,0.62091064453125,0.38287353515625,0.37896728515625,-0.5694580078125,5.9660452016699255,65.04921191445278,-81.24669518716173,2.4735386202122034,,,,3,0,3,3
1788945190.4669318,278667775.0,-8.69140625,0.80859375,4.06640625,0.052734375,-0.08203125,0.0703125,18.0625,0.375,-39.3125,18.0625,0.375,-39.3125,-0.04082965938691214,-0.539362926153845,-0.0013570894542216598,0.8410818813369624,5.702996705369148,65.14952232291613,-170.79614531854625,0.6212158203125,0.3829345703125,0.37841796875,-0.5694580078125,6.0817087115717765,64.99742230322171,-81.15012111189736,2.4376520720561663,,,,3,0,3,3
1788945190.4717894,278671529.0,-8.6484375,0.76953125,4.06640625,0.052734375,-0.08203125,0.0703125,18.0625,0.375,-39.3125,18.0625,0.375,-39.3125,-0.040973948094454475,-0.539212496411373,-0.0010346036156279274,0.8411717713325421,5.791507759056118,65.12470109761148,-170.72225997744482,0.6212158203125,0.3829345703125,0.37841796875,-0.5694580078125,6.0817087115717765,64.99742230322171,-81.15012111189736,2.4778369383670475,,,,3,0,3,3
1788945190.4769065,278675911.0,-8.65234375,0.76953125,4.14453125,0.056640625,-0.083984375,0.068359375,17.6875,-0.1875,-39.6875,17.6875,-0.1875,-39.6875,-0.04110269963743327,-0.5390168877749691,-0.0006471874516063462,0.8412912360914642,5.890514078792271,65.09313626375526,-170.64451574372617,0.6212158203125,0.3829345703125,0.37841796875,-0.5694580078125,6.0817087115717765,64.99742230322171,-81.15012111189736,2.5260830651553734,,,,3,0,3,3
1788945190.4803457,278681294.0,-8.609375,0.84765625,4.21875,0.048828125,-0.0859375,0.052734375,17.6875,-0.1875,-39.6875,17.6875,-0.1875,-39.6875,-0.041240812214064046,-0.5387523506091,-0.00022677837720467466,0.841454127503491,5.995294293693365,65.05179806402829,-170.56289687358935,0.6214599609375,0.38299560546875,0.37786865234375,-0.56951904296875,6.184453272511868,64.94572682785036,-81.07280744868295,2.513120188618779,,,,3,0,3,3
1788945190.4862702,278683600.0,-8.61328125,0.8828125,4.14453125,0.048828125,-0.07421875,0.044921875,17.6875,-0.1875,-39.6875,17.6875,-0.1875,-39.6875,-0.041296180222656714,-0.5386610245067831,-4.620919476935494e-05,0.8415099072744366,6.040568254134985,65.0370653132998,-170.52792006305583,0.6214599609375,0.38299560546875,0.37786865234375,-0.56951904296875,6.184453272511868,64.94572682785036,-81.07280744868295,2.5356969720469436,,,,3,0,3,3
1788945190.4902127,278687107.0,-8.5703125,0.84765625,4.1796875,0.04296875,-0.064453125,0.021484375,17.6875,-0.1875,-39.6875,17.6875,-0.1875,-39.6875,-0.04134760053918787,-0.5385236839318892,0.00019036367740025192,0.841595259929468,6.0960016302628395,65.01551820957701,-170.48771703558847,0.62164306640625,0.38299560546875,0.37744140625,-0.569580078125,6.253052677683466,64.89894663829998,-81.01806953387045,2.5920233049035426,,,,3,0,3,3
1788945190.4886835,278691589.0,-8.61328125,0.8828125,4.21875,0.033203125,-0.0625,0.0078125,17.6875,-0.1875,-39.6875,17.6875,-0.1875,-39.6875,-0.04140128953183843,-0.5383496751474525,0.000455778784823936,0.84170383910223,6.156675629542323,64.98867524635709,-170.44444611726337,0.62164306640625,0.38299560546875,0.37744140625,-0.569580078125,6.253052677683466,64.89894663829998,-81.01806953387045,2.6243511466109104,,,,3,0,3,3
1788945190.4926186,278695243.0,-8.65234375,0.9609375,4.21875,0.033203125,-0.0625,0.0078125,13.875,1.25,-35.25,13.875,1.25,-35.25,-0.04150199286949788,-0.5382026704580721,0.0006231826574345407,0.8417927783861271,6.202990935824315,64.96622682501949,-170.40352167282714,0.62164306640625,0.38299560546875,0.37744140625,-0.569580078125,6.253052677683466,64.89894663829998,-81.01806953387045,2.645627561751046,,,,3,0,3,3
1788945190.4926186,278699349.0,-8.61328125,0.8828125,4.21875,0.0234375,-0.0625,0.0,13.875,1.25,-35.25,13.875,1.25,-35.25,-0.04160951403302325,-0.5380232342207182,0.0007674246537386081,0.8419020482455276,6.2435865785801905,64.93961260191972,-170.36580027391474,0.6217041015625,0.3829345703125,0.37713623046875,-0.56976318359375,6.26909939396697,64.8634920901028,-81.02444860326298,2.6246095791494435,,,,3,0,3,3
1788945190.5054562,278703132.0,-8.65234375,0.76953125,4.14453125,0.013671875,-0.056640625,-0.0234375,14.75,0.5,-33.875,14.75,0.5,-33.875,-0.04165786131316299,-0.537886232075164,0.0009112571623174777,0.8419870506992256,6.277278063366045,64.91915451846094,-170.33990373549778,0.6217041015625,0.3829345703125,0.37713623046875,-0.56976318359375,6.26909939396697,64.8634920901028,-81.02444860326298,2.6428749483928313,,,,3,0,3,3
1788945190.5103917,278706638.0,-8.609375,0.73046875,4.21875,0.0078125,-0.046875,-0.025390625,14.75,0.5,-33.875,14.75,0.5,-33.875,-0.04168966972412457,-0.5377438004081276,0.0010066584404243967,0.8420763404820857,6.2973501716248,64.89863984570036,-170.32497809622544,0.62176513671875,0.38275146484375,0.376953125,-0.56988525390625,6.2522992495920215,64.82347889688522,-81.03522616715273,2.8059611111272864,,,,3,0,3,3
1788945190.5113013,278711191.0,-8.6484375,0.76953125,4.1796875,0.0078125,-0.046875,-0.025390625,14.75,0.5,-33.875,14.75,0.5,-33.875,-0.04174728565220781,-0.537584106305347,0.0011552250824566073,0.8421752538774594,6.332389681203357,64.87499817765907,-170.29733695846087,0.62176513671875,0.38275146484375,0.376953125,-0.56988525390625,6.2522992495920215,64.82347889688522,-81.03522616715273,2.8240455626903587,,,,3,0,3,3
1788945190.51451,278714974.0,-8.69140625,0.6171875,4.1796875,0.0078125,-0.033203125,-0.041015625,15.1875,0.5625,-33.125,15.1875,0.5625,-33.125,-0.04177013940915479,-0.5374430725742341,0.0012065143871529708,0.8422640580713034,6.341204147209551,64.85524537731541,-170.29075465556772,0.62176513671875,0.38275146484375,0.376953125,-0.56988525390625,6.2522992495920215,64.82347889688522,-81.03522616715273,2.831051184154544,,,,3,0,3,3
1788945190.51451,278718880.0,-8.609375,0.46484375,4.14453125,-0.01953125,-0.0390625,-0.0546875,15.1875,0.5625,-33.125,15.1875,0.5625,-33.125,-0.04172621077644755,-0.5372625184763825,0.0010671548923744279,0.8423816063727234,6.29567745604606,64.83285670163156,-170.32820811416062,0.6217041015625,0.382568359375,0.376953125,-0.570068359375,6.19299309328431,64.80804685989654,-81.0969623464043,2.84841599777829,,,,3,0,3,3
1788945190.5249782,278722263.0,-8.65234375,0.38671875,4.10546875,-0.017578125,-0.03515625,-0.048828125,14.4375,1.0,-33.5,14.4375,1.0,-33.5,-0.04166851511889859,-0.5371766142333156,0.0008424724716547924,0.8424394994352723,6.233016315053627,64.82427796246697,-170.37694283482813,0.6217041015625,0.382568359375,0.376953125,-0.570068359375,6.19299309328431,64.80804685989654,-81.0969623464043,2.823942782562733,,,,3,0,3,3
1788945190.526953,278726616.0,-8.609375,0.34765625,4.14453125,-0.017578125,-0.03515625,-0.048828125,14.4375,1.0,-33.5,14.4375,1.0,-33.5,-0.04158180979015806,-0.5370393083195727,0.0005755449773412498,0.8425315443128459,6.1545309812251885,64.80944807646343,-170.440360340905,0.6217041015625,0.382568359375,0.376953125,-0.570068359375,6.19299309328431,64.80804685989654,-81.0969623464043,2.795172759034416,,,,3,0,3,3
1788945190.5319567,278730799.0,-8.61328125,0.38671875,4.10546875,-0.013671875,-0.029296875,-0.048828125,14.4375,1.0,-33.5,14.4375,1.0,-33.5,-0.04151084500814368,-0.5369310773614688,0.0003128199940032938,0.8426041597653157,6.080550487028465,64.79834424251447,-170.498338478579,0.6217041015625,0.38232421875,0.37701416015625,-0.57025146484375,6.120519615726475,64.79964185826992,-81.17231229111226,2.6250307354877966,,,,3,0,3,3
1788945190.5322168,278734105.0,-8.57421875,0.1171875,4.06640625,-0.025390625,-0.029296875,-0.046875,14.375,-0.4375,-34.3125,14.375,-0.4375,-34.3125,-0.04131617717318383,-0.5368505191794858,0.00021867534931838709,0.8426650851563758,6.028013627975155,64.78994364854282,-170.55916936755028,0.6217041015625,0.38232421875,0.37701416015625,-0.57025146484375,6.120519615726475,64.79964185826992,-81.17231229111226,2.6130532145093643,,,,3,0,3,3
1788945190.5405545,278738788.0,-8.65234375,0.00390625,4.10546875,-0.0234375,-0.021484375,-0.044921875,14.375,-0.4375,-34.3125,14.375,-0.4375,-34.3125,-0.04105276292707932,-0.5367646588333569,2.719329807260052e-05,0.8427326805957436,5.943484447316588,64.78237136746715,-170.6496233351565,0.62164306640625,0.382080078125,0.3770751953125,-0.57037353515625,6.048038706512555,64.7787520089358,-81.22609222362694,2.8015852577073668,,,,3,0,3,3
1788945190.5454097,278742371.0,-8.609375,0.15625,4.1796875,-0.00390625,-0.01953125,-0.02734375,18.3125,2.25,-39.375,18.3125,2.25,-39.375,-0.040991632139013835,-0.5367078030396522,-0.0001739539659163756,0.8427718493109196,5.887045983808555,64.77735709698734,-170.6943974715189,0.62164306640625,0.382080078125,0.3770751953125,-0.57037353515625,6.048038706512555,64.7787520089358,-81.22609222362694,2.779817381711662,,,,3,0,3,3
1788945190.5469198,278745947.0,-8.6484375,0.30859375,4.10546875,-0.00390625,-0.01953125,-0.02734375,18.3125,2.25,-39.375,18.3125,2.25,-39.375,-0.04095250982525257,-0.5366696163653395,-0.00038206363255565166,0.8427980000193834,5.832971566206088,64.7747669510161,-170.73441694123883,0.62164306640625,0.382080078125,0.3770751953125,-0.57037353515625,6.048038706512555,64.7787520089358,-81.22609222362694,2.7573090148897603,,,,3,0,3,3
1788945190.5505931,278749854.0,-8.61328125,0.15625,4.14453125,-0.001953125,-0.00390625,-0.0234375,18.3125,2.25,-39.375,18.3125,2.25,-39.375,-0.04088977421216953,-0.53664156897354,-0.0005986025412713181,0.8428187791509468,5.774024337035343,64.77378364512381,-170.78058118276482,0.62164306640625,0.3819580078125,0.37713623046875,-0.57049560546875,6.00478331479327,64.78277057501111,-81.27938482941994,2.5180900371646375,,,,3,0,3,3
1788945190.5555143,278754413.0,-8.609375,0.04296875,4.21875,-0.0078125,-0.00390625,-0.015625,18.625,0.75,-39.8125,18.625,0.75,-39.8125,-0.04077957869196183,-0.5365627992835184,-0.0008064095339302914,0.8428740938541204,5.70822127387748,64.76617551211605,-170.83822433587085,0.62164306640625,0.3819580078125,0.37713623046875,-0.57049560546875,6.00478331479327,64.78277057501111,-81.27938482941994,2.493512281820244,,,,3,0,3,3
1788945190.5582566,278758319.0,-8.65234375,0.1953125,4.296875,0.0078125,0.009765625,-0.005859375,18.625,0.75,-39.8125,18.625,0.75,-39.8125,-0.04071109357808262,-0.5364863853218345,-0.0009130320629247813,0.8429259348225328,5.671335986081282,64.75749212391067,-170.87188283893823,0.62158203125,0.38189697265625,0.377197265625,-0.570556640625,5.972912185965426,64.78368738484468,-81.31025284201753,2.5101380675423415,,,,3,0,3,3
1788945190.5605135,278761602.0,-8.61328125,0.42578125,4.2578125,0.005859375,0.01953125,0.01171875,18.6875,1.75,-39.375,18.6875,1.75,-39.375,-0.04074603930721502,-0.53644397501006,-0.0010087476302674339,0.8429511281114697,5.653106381267084,64.7525746315622,-170.87922470245724,0.62158203125,0.38189697265625,0.377197265625,-0.570556640625,5.972912185965426,64.78368738484468,-81.31025284201753,2.4997134301373793,,,,3,0,3,3
1788945190.5605135,278765955.0,-8.5703125,0.234375,4.2578125,0.005859375,0.01953125,0.01171875,18.6875,1.75,-39.375,18.6875,1.75,-39.375,-0.040739545330258226,-0.5364053395227729,-0.0011624551735037066,0.8429758299475211,5.616022621477192,64.74906555117123,-170.9040549805805,0.62158203125,0.38189697265625,0.377197265625,-0.570556640625,5.972912185965426,64.78368738484468,-81.31025284201753,2.4820894667085276,,,,3,0,3,3
1788945190.5605135,278769661.0,-8.53515625,0.1953125,4.296875,0.001953125,0.029296875,0.0078125,18.6875,1.75,-39.375,18.6875,1.75,-39.375,-0.0407279481044701,-0.5363806296929619,-0.0012954493228747568,0.8429919193826434,5.583427519266205,64.74723985894035,-170.92655260753543,0.62158203125,0.38201904296875,0.377197265625,-0.57049560546875,6.001987925603385,64.79615207574432,-81.288317787115,2.393504218624105,,,,3,0,3,3
1788945190.5762572,278773644.0,-8.57421875,0.38671875,4.3359375,0.001953125,0.0390625,0.017578125,16.8125,0.4375,-39.125,16.8125,0.4375,-39.125,-0.040752906729800906,-0.5363228340889562,-0.0012529869285548747,0.84302754892804,5.594307669837587,64.73883093149735,-170.91706921069257,0.62158203125,0.38201904296875,0.377197265625,-0.57049560546875,6.001987925603385,64.79615207574432,-81.288317787115,2.3997335857752686,,,,3,0,3,3
1788945190.5762572,278777350.0,-8.53125,0.5390625,4.296875,0.009765625,0.060546875,0.01953125,16.8125,0.4375,-39.125,16.8125,0.4375,-39.125,-0.04080930591117215,-0.5363160216122356,-0.0011423570557930324,0.8430293117878106,5.627039713632979,64.73634941678836,-170.88882554514936,0.62152099609375,0.38214111328125,0.3773193359375,-0.57037353515625,6.014966733342908,64.81656784685654,-81.26746960961785,2.4958977610757884,,,,3,0,3,3
1788945190.5723221,278781633.0,-8.53125,0.34765625,4.2578125,0.0,0.06640625,0.0234375,16.8125,0.4375,-39.125,16.8125,0.4375,-39.125,-0.04083289573563079,-0.5363026763885034,-0.001115493935849798,0.8430366952853537,5.635944557072335,64.73410469527552,-170.8801773367035,0.62152099609375,0.38214111328125,0.3773193359375,-0.57037353515625,6.014966733342908,64.81656784685654,-81.26746960961785,2.499444177260858,,,,3,0,3,3
1788945190.5762572,278785286.0,-8.5703125,0.38671875,4.296875,0.0,0.06640625,0.0234375,14.625,-0.1875,-34.9375,14.625,-0.1875,-34.9375,-0.040853257689766886,-0.5363052475128577,-0.0010081278077045954,0.843034208383402,5.663140100199936,64.7331570583699,-170.860203397854,0.62152099609375,0.38214111328125,0.3773193359375,-0.57037353515625,6.014966733342908,64.81656784685654,-81.26746960961785,2.512101397752777,,,,3,0,3,3
1788945190.5894418,278789193.0,-8.5703125,0.5390625,4.2578125,0.005859375,0.083984375,0.021484375,14.625,-0.1875,-34.9375,14.625,-0.1875,-34.9375,-0.040903814817701556,-0.5363618572099645,-0.0008383948663310524,0.8429959271299505,5.71084886552415,64.73860739334607,-170.82243236894158,0.6214599609375,0.38238525390625,0.37750244140625,-0.57012939453125,6.055291191479326,64.85339505837845,-81.21581338207469,2.6060902332228544,,,,3,0,3,3
1788945190.5922709,278793275.0,-8.5703125,0.5390625,4.21875,-0.009765625,0.095703125,0.021484375,14.625,0.375,-34.5,14.625,0.375,-34.5,-0.04099945951890393,-0.5364234334632803,-0.0007259690892429983,0.8429522034608515,5.752331774424445,64.74503253475541,-170.782387112738,0.6214599609375,0.38238525390625,0.37750244140625,-0.57012939453125,6.055291191479326,64.85339505837845,-81.21581338207469,2.6184845183051206,,,,3,0,3,3
1788945190.5922709,278796882.0,-8.5703125,0.42578125,4.14453125,-0.017578125,0.095703125,0.021484375,14.625,0.375,-34.5,14.625,0.375,-34.5,-0.04105570632885605,-0.5364633139869099,-0.0006678124381262041,0.8429241340420669,5.77509133242264,64.74938729527271,-170.75981572193487,0.621337890625,0.3826904296875,0.37774658203125,-0.56988525390625,6.092987648251501,64.90364645085782,-81.17298794939225,2.656888130249441,,,,3,0,3,3
1788945190.5922709,278801811.0,-8.61328125,0.46484375,4.1796875,-0.017578125,0.095703125,0.021484375,14.625,0.375,-34.5,14.625,0.375,-34.5,-0.04115589893767385,-0.5365258909543232,-0.0005665397112036384,0.8428794927811788,5.814788425891798,64.75602201908464,-170.7202533026511,0.621337890625,0.3826904296875,0.37774658203125,-0.56988525390625,6.092987648251501,64.90364645085782,-81.17298794939225,2.6677988745705514,,,,3,0,3,3
1788945190.610789,278809500.0,-8.609375,0.5,4.06640625,-0.01953125,0.119140625,0.021484375,14.5625,-0.25,-35.3125,14.5625,-0.25,-35.3125,-0.04128131052559405,-0.5368764236475309,-0.0002230703365415594,0.8426502888935311,5.924453050756814,64.79858867005173,-170.6289899224611,0.62127685546875,0.38299560546875,0.37811279296875,-0.56951904296875,6.133518017744064,64.96805745491483,-81.11387615959714,2.670542181822258,,,,3,0,3,3
1788945190.6158643,278813283.0,-8.69140625,0.5390625,4.06640625,-0.0234375,0.126953125,0.017578125,14.25,1.75,-34.75,14.25,1.75,-34.75,-0.041428976597595306,-0.5370907299549005,-0.00041435115585589517,0.8425063892978544,5.911303313649719,64.82854638978748,-170.61418763738007,0.62127685546875,0.38299560546875,0.37811279296875,-0.56951904296875,6.133518017744064,64.96805745491483,-81.11387615959714,2.6459761703567373,,,,3,0,3,3
1788945190.6198668,278816789.0,-8.69140625,0.6171875,4.06640625,-0.01953125,0.126953125,0.0078125,14.25,1.75,-34.75,14.25,1.75,-34.75,-0.041595289839167784,-0.5372887084652592,-0.0005533311474653029,0.8423718712323973,5.911995504235459,64.8556023627671,-170.58832165800462,0.62115478515625,0.38330078125,0.3785400390625,-0.5692138671875,6.153733224991174,65.04292531949454,-81.08480046503398,2.4987334169841167,,,,3,0,3,3
1788945190.6209147,278821619.0,-8.7265625,0.5,3.98828125,-0.01953125,0.126953125,0.0078125,14.25,1.75,-34.75,14.25,1.75,-34.75,-0.041720004076927726,-0.5376170016104006,-0.0007959603321349098,0.8421560231254143,5.888635305436119,64.9016759773806,-170.58148733142664,0.62115478515625,0.38330078125,0.3785400390625,-0.5692138671875,6.153733224991174,65.04292531949454,-81.08480046503398,2.4640427258289885,,,,3,0,3,3
1788945190.6268518,278824525.0,-8.65234375,0.5,3.98828125,-0.03125,0.126953125,0.01171875,14.375,0.4375,-34.25,14.375,0.4375,-34.25,-0.04180151905918436,-0.5378085617319599,-0.0007089499696524357,0.8420297389772439,5.928021042941763,64.92595602286016,-170.54272441866283,0.62115478515625,0.38330078125,0.3785400390625,-0.5692138671875,6.153733224991174,65.04292531949454,-81.08480046503398,2.471786188722234,,,,3,0,3,3
1788945190.6268518,278828432.0,-8.6875,0.5390625,3.953125,-0.03125,0.130859375,0.009765625,14.375,0.4375,-34.25,14.375,0.4375,-34.25,-0.04190840029681984,-0.5380944834430892,-0.000617231334626952,0.8418418093075183,5.976159284892008,64.96271816601781,-170.49357871128888,0.6209716796875,0.38360595703125,0.3790283203125,-0.56884765625,6.165999509410507,65.11557112317028,-81.04541818966882,2.6074195004851197,,,,3,0,3,3
1788945190.6268518,278832414.0,-8.6875,0.5,3.953125,-0.02734375,0.126953125,0.00390625,15.125,-0.375,-33.5625,15.125,-0.375,-33.5625,-0.04194885342933234,-0.5383443254642053,-0.0004816000854311225,0.8416801346104182,6.023246562571642,64.99458666377254,-170.45461255196795,0.6209716796875,0.38360595703125,0.3790283203125,-0.56884765625,6.165999509410507,65.11557112317028,-81.04541818966882,2.6189466169186986,,,,3,0,3,3
1788945190.6268518,278836568.0,-8.6875,0.5390625,3.953125,-0.02734375,0.126953125,0.00390625,15.125,-0.375,-33.5625,15.125,-0.375,-33.5625,-0.04200321677945289,-0.5385990874950861,-0.00033776077717061475,0.8415144910500925,6.074538904568438,65.02691959192178,-170.41096973827936,0.6209716796875,0.38360595703125,0.3790283203125,-0.56884765625,6.165999509410507,65.11557112317028,-81.04541818966882,2.6319830611640964,,,,3,0,3,3
1788945190.6268518,278840950.0,-8.6875,0.5390625,3.98828125,-0.037109375,0.125,-0.001953125,15.125,-0.375,-33.5625,15.125,-0.375,-33.5625,-0.04206197024905494,-0.5388430013291468,-0.00020380569043970955,0.8413554356160097,6.123884946461819,65.05786221775514,-170.36807742759873,0.620849609375,0.38385009765625,0.3795166015625,-0.5684814453125,6.173119789948829,65.18515687952552,-81.00846713224384,2.696429065545392,,,,3,0,3,3
1788945190.64577,278844257.0,-8.7265625,0.5390625,3.953125,-0.02734375,0.12890625,0.001953125,17.9375,0.25,-40.0,17.9375,0.25,-40.0,-0.042127462048719345,-0.5390742604023117,-0.0001147669724927319,0.8412040213536645,6.163566610320679,65.08755495974083,-170.33055161555424,0.620849609375,0.38385009765625,0.3795166015625,-0.5684814453125,6.173119789948829,65.18515687952552,-81.00846713224384,2.7035410634880326,,,,3,0,3,3
1788945190.6508818,278848839.0,-8.6875,0.5,3.953125,-0.02734375,0.126953125,-0.01171875,17.9375,0.25,-40.0,17.9375,0.25,-40.0,-0.04217763430404393,-0.5393860664480608,-2.573755586744732e-07,0.8410016162208822,6.210384106168379,65.12792727206886,-170.28934771407754,0.62066650390625,0.38409423828125,0.3800048828125,-0.56817626953125,6.16768284633475,65.25491263627455,-80.99040312252838,2.77750905164836,,,,3,0,3,3
1788945190.655778,278852622.0,-8.65234375,0.5,3.953125,-0.03125,0.123046875,-0.0078125,18.0,1.25,-39.5,18.0,1.25,-39.5,-0.04228282673983255,-0.5396297363895288,-0.00021907989515120257,0.8408399741752627,6.186426756982338,65.16253825841689,-170.28664200576404,0.62066650390625,0.38409423828125,0.3800048828125,-0.56817626953125,6.16768284633475,65.25491263627455,-80.99040312252838,2.750069195163464,,,,3,0,3,3
1788945190.6568558,278855799.0,-8.65234375,0.5,3.953125,-0.03125,0.123046875,-0.0078125,18.0,1.25,-39.5,18.0,1.25,-39.5,-0.0423768137442501,-0.539830579726575,-0.0004022834788549066,0.8407062441881575,6.167081842192112,65.19105371743001,-170.28317197454328,0.62066650390625,0.38409423828125,0.3800048828125,-0.56817626953125,6.16768284633475,65.25491263627455,-80.99040312252838,2.727524487851643,,,,3,0,3,3
1788945190.661707,278860082.0,-8.65234375,0.5,3.953125,-0.025390625,0.115234375,-0.005859375,18.0,1.25,-39.5,18.0,1.25,-39.5,-0.042507043139812954,-0.5400829700972953,-0.0006346156971052861,0.8405374078274631,6.144050543141735,65.22683465896759,-170.27635444139247,0.6204833984375,0.38433837890625,0.3804931640625,-0.56793212890625,6.155952563413786,65.33120291741538,-80.99283955154246,2.5916612500358416,,,,3,0,3,3
1788945190.6663191,278864264.0,-8.65234375,0.5,3.98828125,-0.021484375,0.11328125,-0.0078125,18.25,0.1875,-40.25,18.25,0.1875,-40.25,-0.042553850988461005,-0.5402596302180942,-0.0004874821018296497,0.8404215990107944,6.192230807029188,65.24863685762516,-170.23665041168832,0.6204833984375,0.38433837890625,0.3804931640625,-0.56793212890625,6.155952563413786,65.33120291741538,-80.99283955154246,2.606959347032046,,,,3,0,3,3
1788945190.6704903,278867971.0,-8.65234375,0.42578125,3.9140625,-0.0234375,0.11328125,-0.013671875,18.25,0.1875,-40.25,18.25,0.1875,-40.25,-0.04252688800997195,-0.5405006996916596,-0.00040056426782040855,0.8402679911654858,6.218670776482844,65.28036784328702,-170.21987844745826,0.6202392578125,0.38458251953125,0.38092041015625,-0.56768798828125,6.145904963745375,65.39081150871809,-80.98232203944674,2.7986874948792977,,,,3,0,3,3
1788945190.664409,278871954.0,-8.6875,0.42578125,3.9140625,-0.015625,0.115234375,-0.01171875,18.25,0.1875,-40.25,18.25,0.1875,-40.25,-0.042491256464373975,-0.5407741794580537,-0.00030665638071468253,0.8400938554217687,6.246914300397379,65.3164607833103,-170.20263048401554,0.6202392578125,0.38458251953125,0.38092041015625,-0.56768798828125,6.145904963745375,65.39081150871809,-80.98232203944674,2.804826410744879,,,,3,0,3,3
1788945190.668774,278875707.0,-8.6875,0.5,3.9140625,-0.015625,0.115234375,-0.01171875,18.4375,0.875,-38.875,18.4375,0.875,-38.875,-0.04258242550281253,-0.5410516610926585,-0.00040985925980273905,0.8399105125443779,6.248924877392415,65.3544475254593,-170.18474844400453,0.6202392578125,0.38458251953125,0.38092041015625,-0.56768798828125,6.145904963745375,65.39081150871809,-80.98232203944674,2.790816735779008,,,,3,0,3,3
1788945190.677504,278879613.0,-8.6875,0.5,3.9140625,-0.0078125,0.115234375,-0.01171875,18.4375,0.875,-38.875,18.4375,0.875,-38.875,-0.042678599232190716,-0.5413375123349615,-0.0005030106638002781,0.8397213715791957,6.254390673319837,65.39341945173774,-170.16383849261487,0.62005615234375,0.38482666015625,0.38134765625,-0.56744384765625,6.142288876949955,65.45688571403309,-80.97337658007028,2.7762868738345063,,,,3,0,3,3
1788945190.677504,278883396.0,-8.6875,0.5,3.8359375,-0.005859375,0.111328125,-0.01171875,15.3125,-1.5625,-35.0,15.3125,-1.5625,-35.0,-0.04265010055996144,-0.5415422334316565,-0.00035053351635776323,0.8395908857642109,6.294280866180013,65.4195019850449,-170.1391415160989,0.62005615234375,0.38482666015625,0.38134765625,-0.56744384765625,6.142288876949955,65.45688571403309,-80.97337658007028,2.790601075779835,,,,3,0,3,3
1788945190.677504,278887502.0,-8.69140625,0.46484375,3.875,-0.00390625,0.111328125,-0.013671875,15.3125,-1.5625,-35.0,15.3125,-1.5625,-35.0,-0.04260533350937558,-0.5417545779700242,-0.00018136585679603284,0.8394562108362185,6.336005295160714,65.44654009748315,-170.11534941711835,0.61981201171875,0.3851318359375,0.38177490234375,-0.5672607421875,6.137624062973389,65.5326841161612,-80.98255770307875,2.7033503357679187,,,,3,0,3,3
1788945190.6894226,278891785.0,-8.7265625,0.5390625,3.875,-0.01171875,0.107421875,-0.013671875,15.3125,-1.5625,-35.0,15.3125,-1.5625,-35.0,-0.04258339813084209,-0.5419695903755778,-1.7587332087732126e-05,0.8393185432256601,6.38007646058973,65.4738283809753,-170.08686893646848,0.61981201171875,0.3851318359375,0.38177490234375,-0.5672607421875,6.137624062973389,65.5326841161612,-80.98255770307875,2.719510543120019,,,,3,0,3,3
1788945190.6933577,278895438.0,-8.6875,0.5,3.9140625,-0.01171875,0.107421875,-0.013671875,15.3125,-0.125,-34.5,15.3125,-0.125,-34.5,-0.042580348137388487,-0.542147937337786,0.0001230698298204031,0.8392034990672406,6.420056192411548,65.49628923597106,-170.05896110910746,0.61981201171875,0.3851318359375,0.38177490234375,-0.5672607421875,6.137624062973389,65.5326841161612,-80.98255770307875,2.733925462617711,,,,3,0,3,3
1788945190.6933577,278899344.0,-8.7265625,0.5390625,3.9140625,-0.009765625,0.10546875,-0.015625,15.3125,-0.125,-34.5,15.3125,-0.125,-34.5,-0.042586244535207506,-0.5423423373926836,0.00027182781391672155,0.8390775452587608,6.464028807427352,65.52075100615161,-170.0270023510006,0.61962890625,0.3853759765625,0.38214111328125,-0.56707763671875,6.135777828144003,65.5949929291879,-80.98266003023679,2.6846804746509396,,,,3,0,3,3
1788945190.6933577,278903327.0,-8.7265625,0.5,3.9140625,-0.017578125,0.099609375,-0.01953125,14.8125,-2.3125,-34.1875,14.8125,-2.3125,-34.1875,-0.04254948655513383,-0.5425148878467432,0.00041038779685398364,0.8389677998829195,6.4983635162692925,65.54270685510149,-170.0073558099815,0.61962890625,0.3853759765625,0.38214111328125,-0.56707763671875,6.135777828144003,65.5949929291879,-80.98266003023679,2.6988843872319377,,,,3,0,3,3
1788945190.7096887,278906833.0,-8.76171875,0.5,3.875,-0.025390625,0.095703125,-0.013671875,14.8125,-2.3125,-34.1875,14.8125,-2.3125,-34.1875,-0.042532529782503194,-0.5426692681496429,0.000525244797079438,0.8388687462494562,6.529399345896758,65.56233486739929,-169.98738298181627,0.619384765625,0.38555908203125,0.382568359375,-0.56689453125,6.107424194083356,65.65179014837912,-80.99415190654547,2.837405207404501,,,,3,0,3,3
1788945190.7102082,278911463.0,-8.73046875,0.46484375,3.875,-0.025390625,0.095703125,-0.013671875,14.8125,-2.3125,-34.1875,14.8125,-2.3125,-34.1875,-0.04250316185753973,-0.5428694707899775,0.0006767162816182508,0.8387405802579221,6.569188667598357,65.58781482516532,-169.96276029682863,0.619384765625,0.38555908203125,0.382568359375,-0.56689453125,6.107424194083356,65.65179014837912,-80.99415190654547,2.8522560187181023,,,,3,0,3,3
1788945190.7121613,278914569.0,-8.76171875,0.42578125,3.875,-0.025390625,0.099609375,-0.015625,15.75,-0.4375,-33.8125,15.75,-0.4375,-33.8125,-0.0424699473246826,-0.5430364495191801,0.0007604104777853128,0.8386340917490458,6.591262306240028,65.60964242023569,-169.95052560073918,0.619384765625,0.38555908203125,0.382568359375,-0.56689453125,6.107424194083356,65.65179014837912,-80.99415190654547,2.85979180614741,,,,3,0,3,3
1788945190.7121613,278918475.0,-8.7265625,0.42578125,3.875,-0.025390625,0.091796875,-0.013671875,15.75,-0.4375,-33.8125,15.75,-0.4375,-33.8125,-0.04243020197861981,-0.5432213411562132,0.0008761439541669851,0.8385162400599465,6.620632103800122,65.63356136398666,-169.93420610953035,0.6192626953125,0.38568115234375,0.38299560546875,-0.566650390625,6.0866273228815855,65.70546632062457,-80.9891713638609,2.914815869487617,,,,3,0,3,3
1788945190.725903,278923235.0,-8.73046875,0.38671875,3.8359375,-0.0234375,0.095703125,-0.017578125,15.8125,1.0625,-33.0,15.8125,1.0625,-33.0,-0.04241234709485673,-0.5434775717789799,0.0005822525964149042,0.8383513480451039,6.561753796891,65.67184096251916,-169.97044182024624,0.6192626953125,0.38568115234375,0.38299560546875,-0.566650390625,6.0866273228815855,65.70546632062457,-80.9891713638609,2.877725024387206,,,,3,0,3,3
1788945190.728722,278927341.0,-8.7578125,0.5,3.796875,-0.03125,0.091796875,-0.015625,15.8125,1.0625,-33.0,15.8125,1.0625,-33.0,-0.042461551233829165,-0.543733535860321,0.000376673141272699,0.8381829852514273,6.533302280535286,65.70851285470627,-169.97800527227378,0.61907958984375,0.3858642578125,0.38336181640625,-0.56646728515625,6.072865111699261,65.75835268561802,-80.99060740681176,2.8991328126118026,,,,3,0,3,3
1788945190.728722,278930318.0,-8.73046875,0.2734375,3.76171875,-0.03125,0.091796875,-0.015625,15.8125,1.0625,-33.0,15.8125,1.0625,-33.0,-0.042437973625188745,-0.5438936452857018,0.0001928714721663507,0.8380803564175779,6.4944738596970515,65.73253288944169,-170.00370548604292,0.61907958984375,0.3858642578125,0.38336181640625,-0.56646728515625,6.072865111699261,65.75835268561802,-80.99060740681176,2.8760693455656714,,,,3,0,3,3
1788945190.728722,278934500.0,-8.83984375,0.1953125,3.72265625,-0.029296875,0.0859375,-0.015625,14.3125,1.8125,-34.4375,14.3125,1.8125,-34.4375,-0.04241470283259474,-0.5441074468665422,-6.534772178638665e-05,0.8379427635451425,6.440799683091786,65.76469299320675,-170.03811037089957,0.61907958984375,0.3858642578125,0.38336181640625,-0.56646728515625,6.072865111699261,65.75835268561802,-80.99060740681176,2.844104206220307,,,,3,0,3,3
1788945190.728722,278938207.0,-8.80078125,0.42578125,3.76171875,-0.025390625,0.080078125,-0.00390625,14.3125,1.8125,-34.4375,14.3125,1.8125,-34.4375,-0.04245463349551062,-0.5442987748339735,-0.0002665490118160559,0.8378164338091141,6.408809612163764,65.79265368244634,-170.05029258557627,0.61895751953125,0.385986328125,0.3837890625,-0.5662841796875,6.045499172611354,65.81874165702136,-81.0065850710786,2.6975042908814366,,,,3,0,3,3
1788945190.745637,278942766.0,-8.76171875,0.2734375,3.68359375,-0.029296875,0.076171875,-0.01171875,17.9375,2.1875,-39.75,17.9375,2.1875,-39.75,-0.042451643807941225,-0.5445184718583334,-0.0005392800026387144,0.8376736840322418,6.354910899810776,65.82562726100167,-170.08204669233047,0.61895751953125,0.385986328125,0.3837890625,-0.5662841796875,6.045499172611354,65.81874165702136,-81.0065850710786,2.6621688199093825,,,,3,0,3,3
1788945190.7476335,278945943.0,-8.796875,0.1171875,3.64453125,-0.029296875,0.076171875,-0.01171875,17.9375,2.1875,-39.75,17.9375,2.1875,-39.75,-0.042432778062898795,-0.5446683866127583,-0.0007296029917025903,0.837577026696646,6.314534390641579,65.8483026671158,-170.10835995837695,0.61895751953125,0.385986328125,0.3837890625,-0.5662841796875,6.045499172611354,65.81874165702136,-81.0065850710786,2.637483269724807,,,,3,0,3,3
1788945190.7506335,278950049.0,-8.73046875,0.2734375,3.72265625,-0.02734375,0.0625,-0.001953125,17.9375,2.1875,-39.75,17.9375,2.1875,-39.75,-0.04244519687510254,-0.5448303918223024,-0.0009704055056154161,0.8374707802199102,6.267620063582371,65.87297057424588,-170.13444722422392,0.61883544921875,0.38604736328125,0.38409423828125,-0.56610107421875,6.022653379718217,65.8483784723505,-80.99988097554149,2.8155958966687105,,,,3,0,3,3
1788945190.7557206,278953832.0,-8.6875,0.1171875,3.64453125,-0.03515625,0.05078125,0.0,17.875,-1.3125,-41.125,17.875,-1.3125,-41.125,-0.04236338438472557,-0.5449864673323745,-0.0009514954214603587,0.8373733866946773,6.266684226308969,65.89449561200067,-170.1438769457681,0.61883544921875,0.38604736328125,0.38409423828125,-0.56610107421875,6.022653379718217,65.8483784723505,-80.99988097554149,2.8156632443001155,,,,3,0,2,3
1788945190.7594235,278958314.0,-8.6875,0.30859375,3.64453125,-0.025390625,0.046875,0.009765625,17.875,-1.3125,-41.125,17.875,-1.3125,-41.125,-0.04234185659471708,-0.545154907713486,-0.0008266003379298997,0.837264958366164,6.300239489991106,65.91600460399994,-170.12260282315208,0.61883544921875,0.3861083984375,0.38433837890625,-0.56591796875,6.021176075516953,65.8805889416234,-80.98429904635785,2.7794866237228733,,,,3,0,2,3
1788945190.7655296,278962297.0,-8.7265625,0.2734375,3.68359375,-0.025390625,0.03515625,0.009765625,18.5625,1.625,-40.0625,18.5625,1.625,-40.0625,-0.04235870852840954,-0.5452841397764675,-0.001023345424554353,0.8371797294990991,6.262703024185266,65.9356900032084,-170.14256548358705,0.61883544921875,0.3861083984375,0.38433837890625,-0.56591796875,6.021176075516953,65.8805889416234,-80.98429904635785,2.755749518731476,,,,3,0,2,3
1788945190.7655296,278966274.0,-8.7265625,0.30859375,3.64453125,-0.025390625,0.03515625,0.009765625,18.5625,1.625,-40.0625,18.5625,1.625,-40.0625,-0.04238447222948774,-0.5454265755300378,-0.001203470337388004,0.8370853952127887,6.230969341936448,65.95690296687972,-170.15737563752577,0.61883544921875,0.3861083984375,0.38433837890625,-0.56591796875,6.021176075516953,65.8805889416234,-80.98429904635785,2.734060982485539,,,,3,0,2,3
1788945190.7696183,278969980.0,-8.7265625,0.234375,3.68359375,-0.021484375,0.029296875,0.015625,18.5625,1.625,-40.0625,18.5625,1.625,-40.0625,-0.04239802129398919,-0.5455330880519949,-0.0013778595554826407,0.8370150292162347,6.197049334008641,65.97327274374985,-170.17582840711717,0.61883544921875,0.38616943359375,0.384521484375,-0.56573486328125,6.0279801077462825,65.90223075257767,-80.95675979723724,2.7692857210456565,,,,3,0,2,3
1788945190.776741,278973363.0,-8.7578125,0.2734375,3.72265625,-0.017578125,0.021484375,0.0234375,17.0625,1.375,-39.3125,17.0625,1.375,-39.3125,-0.042416903709500714,-0.5456251401179835,-0.001517016785975789,0.8369538287211553,6.171510227883979,65.98723174088799,-170.18836284637646,0.61883544921875,0.38616943359375,0.384521484375,-0.56573486328125,6.0279801077462825,65.90223075257767,-80.95675979723724,2.752915218319756,,,,3,0,2,3
1788945190.776741,278977746.0,-8.7265625,0.2734375,3.68359375,-0.0234375,0.00390625,0.03515625,17.0625,1.375,-39.3125,17.0625,1.375,-39.3125,-0.04247179685222506,-0.5457197668078414,-0.0016822565955047625,0.8368890324290823,6.145460573535319,66.00157980503933,-170.19626471204407,0.618896484375,0.38623046875,0.38458251953125,-0.56561279296875,6.051350338146327,65.91588176308922,-80.92759687041011,2.6563623338063285,,,,3,0,2,3
1788945190.774788,278981875.0,-8.7265625,0.30859375,3.68359375,-0.0234375,0.00390625,0.03515625,17.0625,1.375,-39.3125,17.0625,1.375,-39.3125,-0.04253309682431199,-0.5458157399205343,-0.0018296292144725538,0.8368230196322701,6.1246227769150545,66.01585715059369,-170.1999048767157,0.618896484375,0.38623046875,0.38458251953125,-0.56561279296875,6.051350338146327,65.91588176308922,-80.92759687041011,2.638998115935597,,,,3,0,2,3
1788945190.781677,278985282.0,-8.7265625,0.34765625,3.72265625,-0.009765625,-0.0078125,0.02734375,14.375,0.9375,-34.1875,14.375,0.9375,-34.1875,-0.042557459089173105,-0.5458914412885989,-0.0019127668245783247,0.8367722141221016,6.112269090163578,66.02690956038484,-170.20342457266136,0.618896484375,0.38623046875,0.38458251953125,-0.56561279296875,6.051350338146327,65.91588176308922,-80.92759687041011,2.629027556843564,,,,3,0,3,3
1788945190.7886431,278989388.0,-8.73046875,0.38671875,3.68359375,-0.0078125,-0.013671875,0.033203125,14.375,0.9375,-34.1875,14.375,0.9375,-34.1875,-0.04261592278346049,-0.5459877375597603,-0.0019587044617247395,0.8367063027350279,6.114790547408234,66.04007276248099,-170.19234066438165,0.6190185546875,0.38623046875,0.38458251953125,-0.56549072265625,6.077621380154019,65.91582527414359,-80.88902992660809,2.5891296974316362,,,,3,0,3,3
1788945190.7954507,278993371.0,-8.6875,0.38671875,3.72265625,-0.009765625,-0.017578125,0.03515625,15.5,0.5625,-33.125,15.5,0.5625,-33.125,-0.04266185331224766,-0.5460795094290652,-0.0019578507607992,0.8366440715585535,6.126177399505007,66.0521687635889,-170.17730084661977,0.6190185546875,0.38623046875,0.38458251953125,-0.56549072265625,6.077621380154019,65.91582527414359,-80.88902992660809,2.589339393145469,,,,3,0,3,3
1788945190.7954507,278997077.0,-8.65234375,0.38671875,3.76171875,0.001953125,-0.03125,0.046875,15.5,0.5625,-33.125,15.5,0.5625,-33.125,-0.04269602029810252,-0.5461415219679502,-0.0019420576824348865,0.8366018863504872,6.137932216052532,66.0601413379488,-170.16407788904,0.61920166015625,0.38616943359375,0.38446044921875,-0.56536865234375,6.114968755070405,65.89145668318137,-80.829162432341,2.7133779437532044,,,,3,0,3,3
1788945190.7954507,279001230.0,-8.65234375,0.46484375,3.796875,0.001953125,-0.03125,0.046875,15.5,0.5625,-33.125,15.5,0.5625,-33.125,-0.042866271600200886,-0.546145957452615,-0.0017226896195956163,0.8365907651042647,6.215740527612001,66.05691203314316,-170.09031793050315,0.61920166015625,0.38616943359375,0.38446044921875,-0.56536865234375,6.114968755070405,65.89145668318137,-80.829162432341,2.7399976871489073,,,,3,0,3,3
1788945190.7954507,279005213.0,-8.6484375,0.578125,3.796875,-0.001953125,-0.03515625,0.041015625,15.0625,-0.0625,-34.1875,15.0625,-0.0625,-34.1875,-0.04297343076106515,-0.5460967353494948,-0.001483370521567506,0.8366178575079208,6.286068411784198,66.04661250163839,-170.03087229087586,0.61920166015625,0.38616943359375,0.38446044921875,-0.56536865234375,6.114968755070405,65.89145668318137,-80.829162432341,2.768488162920571,,,,3,0,3,3
1788945190.8102036,279009119.0,-8.6484375,0.46484375,3.8359375,-0.01171875,-0.03515625,0.0390625,15.0625,-0.0625,-34.1875,15.0625,-0.0625,-34.1875,-0.04304620099053006,-0.5460235843592547,-0.0012637938587785047,0.8366622214064868,6.345338371249998,66.03354213171811,-169.98367992021886,0.619384765625,0.38616943359375,0.38427734375,-0.56524658203125,6.172404471421384,65.86617677376069,-80.75641021023567,2.8974590541806164,,,,3,0,3,3
1788945190.8113055,279012702.0,-8.7265625,0.5,3.8359375,-0.005859375,-0.04296875,0.04296875,15.75,1.5,-33.25,15.75,1.5,-33.25,-0.04317979011472285,-0.5459825532021738,-0.0013915820856723268,0.8366819113759917,6.333924614353178,66.02849516879702,-169.97339714966327,0.619384765625,0.38616943359375,0.38427734375,-0.56524658203125,6.172404471421384,65.86617677376069,-80.75641021023567,2.8847830788704742,,,,3,0,3,3
1788945190.8132732,279016855.0,-8.76171875,0.5390625,3.875,-0.005859375,-0.04296875,0.04296875,15.75,1.5,-33.25,15.75,1.5,-33.25,-0.04336778340576231,-0.5459197023134809,-0.0015263866246839012,0.8367129640039667,6.328181312614986,66.02016869645742,-169.95233031697563,0.619384765625,0.38616943359375,0.38427734375,-0.56524658203125,6.172404471421384,65.86617677376069,-80.75641021023567,2.872065259410548,,,,3,0,3,3
1788945190.8132732,279020761.0,-8.796875,0.5,3.875,-0.001953125,-0.04296875,0.044921875,15.75,1.5,-33.25,15.75,1.5,-33.25,-0.04351177755592176,-0.5458715078952312,-0.0016584957825124635,0.8367366798903045,6.31701553596093,66.01413243795884,-169.94057089760483,0.61962890625,0.3861083984375,0.38409423828125,-0.565185546875,6.21781218415409,65.84440781395847,-80.70719071383829,2.739676539448431,,,,3,0,3,3
1788945190.8221796,279024344.0,-8.796875,0.5390625,3.875,-0.0078125,-0.041015625,0.041015625,15.3125,1.875,-33.9375,15.3125,1.875,-33.9375,-0.04365781850554141,-0.5458297361416026,-0.001786409150994285,0.8367560592964183,6.3074443641323645,66.00890462207381,-169.9273999592359,0.61962890625,0.3861083984375,0.38409423828125,-0.565185546875,6.21781218415409,65.84440781395847,-80.70719071383829,2.7268398526536886,,,,3,0,3,3
1788945190.8310337,279028250.0,-8.76171875,0.578125,3.9140625,0.00390625,-0.041015625,0.0390625,15.3125,1.875,-33.9375,15.3125,1.875,-33.9375,-0.043828338868557096,-0.5457534448421965,-0.0018927481916564495,0.8367966728298945,6.305067878008915,65.99856151138964,-169.90675699978084,0.619873046875,0.38604736328125,0.3839111328125,-0.56512451171875,6.263116059744082,65.82263434976291,-80.65809786560345,2.590371290184249,,,,3,0,3,3
1788945190.835936,279032610.0,-8.76171875,0.578125,3.953125,0.0,-0.046875,0.033203125,14.9375,1.3125,-34.4375,14.9375,1.3125,-34.4375,-0.04405836157143719,-0.5455929144312207,-0.0018946457820241504,0.83688926556352,6.332300294082233,65.97510674930194,-169.86013619827526,0.619873046875,0.38604736328125,0.3839111328125,-0.56512451171875,6.263116059744082,65.82263434976291,-80.65809786560345,2.5932988857380477,,,,3,0,3,3
1788945190.8370252,279036963.0,-8.76171875,0.6171875,3.9140625,0.0,-0.046875,0.033203125,14.9375,1.3125,-34.4375,14.9375,1.3125,-34.4375,-0.0443305798117341,-0.5454827972982078,-0.0018480624214464462,0.8369467738217073,6.379590544630426,65.95756788869267,-169.79401870374775,0.619873046875,0.38604736328125,0.3839111328125,-0.56512451171875,6.263116059744082,65.82263434976291,-80.65809786560345,2.6027963731792205,,,,3,0,3,3
1788945190.8409414,279039893.0,-8.6875,0.6171875,3.98828125,0.00390625,-0.0390625,0.03125,14.9375,1.3125,-34.4375,14.9375,1.3125,-34.4375,-0.0444593608365959,-0.5453677102613088,-0.0018139861732256151,0.8370150149743443,6.401791518445192,65.94059004626709,-169.76384644689293,0.62005615234375,0.385986328125,0.38372802734375,-0.5650634765625,6.301772002747911,65.79430982985119,-80.60755848289551,2.6695439869592983,,,,3,0,3,3
1788945190.8450785,279044652.0,-8.6875,0.65625,4.02734375,0.00390625,-0.0390625,0.017578125,17.625,0.75,-40.0,17.625,0.75,-40.0,-0.04458500810975685,-0.545192187901783,-0.0016293822698250364,0.8371230497460564,6.455781617425111,65.91361562920792,-169.71455122555568,0.62005615234375,0.385986328125,0.38372802734375,-0.5650634765625,6.301772002747911,65.79430982985119,-80.60755848289551,2.6931050416016538,,,,3,0,3,3
1788945190.8450785,279048358.0,-8.65234375,0.6171875,3.98828125,0.005859375,-0.03125,0.017578125,17.625,0.75,-40.0,17.625,0.75,-40.0,-0.044680460338271076,-0.5450661929711532,-0.0014855481974251654,0.8372002716736581,6.497909088338537,65.89406560597186,-169.6762951656814,0.62017822265625,0.38592529296875,0.383544921875,-0.5650634765625,6.3273080202361704,65.76604034447658,-80.57628513426205,2.7861883505756095,,,,3,0,3,3
1788945190.8450785,279052618.0,-8.61328125,0.6171875,4.02734375,-0.00390625,-0.029296875,0.015625,17.6875,0.3125,-39.6875,17.6875,0.3125,-39.6875,-0.04476635875291468,-0.5449229793424821,-0.0013249084254633658,0.8372891760474289,6.541623444837189,65.87204584567009,-169.63862009804015,0.62017822265625,0.38592529296875,0.383544921875,-0.5650634765625,6.3273080202361704,65.76604034447658,-80.57628513426205,2.805840484454398,,,,3,0,3,3
1788945190.8534758,279056094.0,-8.65234375,0.5390625,3.98828125,-0.00390625,-0.029296875,0.015625,17.6875,0.3125,-39.6875,17.6875,0.3125,-39.6875,-0.04482299101110382,-0.544804462852978,-0.0011917730388326779,0.837363467324268,6.5756002597470555,65.8539287556572,-169.61085677310527,0.62017822265625,0.38592529296875,0.383544921875,-0.5650634765625,6.3273080202361704,65.76604034447658,-80.57628513426205,2.8220365790564816,,,,3,0,3,3
1788945190.8614492,279059700.0,-8.6875,0.578125,4.02734375,-0.001953125,-0.025390625,0.0078125,17.6875,0.3125,-39.6875,17.6875,0.3125,-39.6875,-0.04487615820229623,-0.5446889040663911,-0.0010590009907632202,0.8374359717189473,6.609064808804674,65.83623973317962,-169.58386623658663,0.6202392578125,0.3858642578125,0.38348388671875,-0.56512451171875,6.323526403691508,65.75895467983227,-80.58783921391391,2.717580475701078,,,,3,0,3,3
1788945190.8654468,279063683.0,-8.6484375,0.5390625,4.06640625,-0.001953125,-0.017578125,0.00390625,18.375,3.25,-38.9375,18.375,3.25,-38.9375,-0.04493363953181946,-0.5446157311330363,-0.0012305624103469727,0.8374802440398265,6.574345551734795,65.82801185110802,-169.59953673942695,0.6202392578125,0.3858642578125,0.38348388671875,-0.56512451171875,6.323526403691508,65.75895467983227,-80.58783921391391,2.6989720992554895,,,,3,0,3,3
1788945190.8723469,279067589.0,-8.65234375,0.42578125,4.02734375,-0.0078125,-0.013671875,-0.00390625,18.375,3.25,-38.9375,18.375,3.25,-38.9375,-0.04495982645765441,-0.5445629075624647,-0.0014306266855734614,0.8375128697633837,6.529239154851455,65.82313039613415,-169.62584918548714,0.62030029296875,0.38580322265625,0.3834228515625,-0.56512451171875,6.326237205422235,65.74529733734194,-80.5786729614948,2.719501562484595,,,,3,0,3,3
1788945190.8714645,279071719.0,-8.69140625,0.38671875,3.98828125,-0.0078125,-0.013671875,-0.00390625,18.375,3.25,-38.9375,18.375,3.25,-38.9375,-0.044979719774677455,-0.54452165240418,-0.0016490560038461045,0.8375382232986797,6.479467862910499,65.82008281316642,-169.6558384373451,0.62030029296875,0.38580322265625,0.3834228515625,-0.56512451171875,6.326237205422235,65.74529733734194,-80.5786729614948,2.695118268955367,,,,3,0,3,3
1788945190.8760307,279076302.0,-8.6875,0.38671875,4.06640625,-0.0078125,-0.0078125,-0.001953125,17.4375,0.375,-39.375,17.4375,0.375,-39.375,-0.04495099763044009,-0.5443669602789336,-0.0016289310901581224,0.837640356568501,6.472512379342896,65.79913306553073,-169.66669269369288,0.62030029296875,0.38580322265625,0.3834228515625,-0.56512451171875,6.326237205422235,65.74529733734194,-80.5786729614948,2.6980662245838767,,,,3,0,3,3
1788945190.8760307,279079232.0,-8.6875,0.42578125,4.02734375,0.001953125,-0.0078125,0.0,17.4375,0.375,-39.375,17.4375,0.375,-39.375,-0.0449368225917787,-0.5442724771479798,-0.001573566329960008,0.8377026181668302,6.478793634318754,65.78578410010431,-169.66608110550703,0.620361328125,0.3857421875,0.3834228515625,-0.56512451171875,6.320821603170859,65.74220389657195,-80.58131591111308,2.638463225053997,,,,3,0,3,3
1788945190.8760307,279083314.0,-8.6484375,0.38671875,4.02734375,0.00390625,0.005859375,-0.001953125,15.0,0.375,-34.5,15.0,0.375,-34.5,-0.04489381165519499,-0.5441593069652141,-0.001538629975417641,0.8377785070864522,6.475092219368375,65.77038219610347,-169.67613475771827,0.620361328125,0.3857421875,0.3834228515625,-0.56512451171875,6.320821603170859,65.74220389657195,-80.58131591111308,2.6428720873384264,,,,3,0,3,3
1788945190.8760307,279087897.0,-8.6875,0.42578125,3.98828125,-0.001953125,0.005859375,0.005859375,15.0,0.375,-34.5,15.0,0.375,-34.5,-0.04487923024929642,-0.5440417679483771,-0.0014378019588854854,0.8378558003292463,6.490785053847174,65.75336402700292,-169.6698892864327,0.620361328125,0.3857421875,0.3834228515625,-0.56512451171875,6.320821603170859,65.74220389657195,-80.58131591111308,2.6555543717748264,,,,3,0,3,3
1788945190.89096,279091150.0,-8.69140625,0.46484375,4.02734375,-0.001953125,0.005859375,0.005859375,15.0,0.375,-34.5,15.0,0.375,-34.5,-0.04489192185190998,-0.5439599093029482,-0.001358958336086058,0.8379083993228681,6.507151789337939,65.74123003366479,-169.65892083334404,0.620361328125,0.3857421875,0.3834228515625,-0.56512451171875,6.320821603170859,65.74220389657195,-80.58131591111308,2.665779650310879,,,,3,0,3,3
1788945190.8955603,279095633.0,-8.6875,0.42578125,3.98828125,-0.0078125,0.015625,-0.001953125,15.5,0.6875,-35.375,15.5,0.6875,-35.375,-0.04488637761360686,-0.5438519649322122,-0.0014129807957236435,0.8379786732544996,6.488705381858441,65.72734094846571,-169.67324713391776,0.620361328125,0.3857421875,0.3834228515625,-0.56512451171875,6.320821603170859,65.74220389657195,-80.58131591111308,2.6605115708589366,,,,3,0,3,3
1788945190.9008443,279099539.0,-8.69140625,0.38671875,4.02734375,0.005859375,0.021484375,0.0,15.5,0.6875,-35.375,15.5,0.6875,-35.375,-0.04485104445716088,-0.5437737705490439,-0.0014614144912399529,0.8380312252784273,6.4684820296627255,65.71763463334376,-169.69231412162065,0.620361328125,0.38580322265625,0.38348388671875,-0.5650634765625,6.331132007031634,65.75582113657134,-80.57134102608747,2.593282040845816,,,,3,0,3,3
1788945190.901886,279103522.0,-8.73046875,0.46484375,4.02734375,0.013671875,0.02734375,-0.00390625,15.375,-0.9375,-34.25,15.375,-0.9375,-34.25,-0.044808909567570006,-0.5437789989052838,-0.0012584555491240907,0.83803041607245,6.50945548148888,65.71618165211164,-169.67165554830567,0.620361328125,0.38580322265625,0.38348388671875,-0.5650634765625,6.331132007031634,65.75582113657134,-80.57134102608747,2.616927792616355,,,,3,0,3,3
1788945190.9107401,279106829.0,-8.7265625,0.42578125,4.02734375,0.005859375,0.02734375,-0.001953125,15.375,-0.9375,-34.25,15.375,-0.9375,-34.25,-0.04477342957284663,-0.5437791401556077,-0.001102706600979203,0.8380324401680793,6.540240703512123,65.71456587562649,-169.65671710197432,0.62030029296875,0.3858642578125,0.383544921875,-0.56500244140625,6.334920045358286,65.76290802021992,-80.55978349353147,2.759942606696428,,,,3,0,3,3
1788945190.9094841,279111658.0,-8.7265625,0.5,4.02734375,0.005859375,0.02734375,-0.001953125,15.375,-0.9375,-34.25,15.375,-0.9375,-34.25,-0.04474677464914626,-0.5437859574249447,-0.0008681386986139319,0.838029716060913,6.590944267407679,65.71281236006506,-169.62766383179707,0.62030029296875,0.3858642578125,0.383544921875,-0.56500244140625,6.334920045358286,65.76290802021992,-80.55978349353147,2.7863228265980124,,,,3,0,3,3
1788945190.9114373,279114764.0,-8.69140625,0.46484375,4.02734375,0.013671875,0.0390625,-0.001953125,15.625,0.8125,-34.375,15.625,0.8125,-34.375,-0.04475165438491606,-0.5437474989975386,-0.0008994279021177438,0.8380543763940282,6.582605062617507,65.7079607461334,-169.63296911537165,0.62030029296875,0.3858642578125,0.383544921875,-0.56500244140625,6.334920045358286,65.76290802021992,-80.55978349353147,2.7832803644509694,,,,3,0,3,3
1788945190.9094841,279118671.0,-8.69140625,0.5390625,4.06640625,0.013671875,0.044921875,-0.01171875,15.625,0.8125,-34.375,15.625,0.8125,-34.375,-0.04477442268054433,-0.5437075343725536,-0.0008802138561611021,0.8380791092514536,6.588595210078987,65.70214393432013,-169.62664284908703,0.62017822265625,0.385986328125,0.38360595703125,-0.56494140625,6.344134338921424,65.7730832236143,-80.54556107654389,2.9651976280027754,,,,3,0,3,3
1788945190.9114373,279122254.0,-8.6875,0.46484375,4.10546875,0.009765625,0.046875,-0.013671875,15.625,0.8125,-34.375,15.625,0.8125,-34.375,-0.044759866002581326,-0.5436710010835633,-0.000915625359729962,0.8381035488568389,6.576471593290214,65.69775578770931,-169.63700574580375,0.62017822265625,0.385986328125,0.38360595703125,-0.56494140625,6.344134338921424,65.7730832236143,-80.54556107654389,2.9616933191300054,,,,3,0,3,3
1788945190.9276233,279126607.0,-8.69140625,0.578125,4.06640625,0.009765625,0.046875,-0.013671875,15.625,0.8125,-34.375,15.625,0.8125,-34.375,-0.04480465587195301,-0.5436365363432456,-0.0008719687427585076,0.8381235582152708,6.591695207395981,65.69220926280906,-169.6216486677139,0.62017822265625,0.385986328125,0.38360595703125,-0.56494140625,6.344134338921424,65.7730832236143,-80.54556107654389,2.967385152247915,,,,3,0,3,3
1788945190.9306922,279130989.0,-8.69140625,0.5,4.06640625,0.00390625,0.060546875,-0.01953125,15.625,0.8125,-34.375,15.625,0.8125,-34.375,-0.0448066348083427,-0.5436167123297485,-0.0009146030789035752,0.8381362652064134,6.581176885133559,65.69003932810054,-169.62845167418737,0.62005615234375,0.38616943359375,0.3837890625,-0.56488037109375,6.349066349747481,65.81404932206603,-80.55392097365753,2.8278501575182795,,,,3,0,3,3
1788945190.932874,279134296.0,-8.7265625,0.6171875,4.02734375,0.013671875,0.076171875,-0.017578125,16.0625,1.5,-32.9375,16.0625,1.5,-32.9375,-0.044865434535509244,-0.5436708669240792,-0.0010147277818605862,0.8380978770820797,6.569374156571001,65.69813082434311,-169.62713231236364,0.62005615234375,0.38616943359375,0.3837890625,-0.56488037109375,6.349066349747481,65.81404932206603,-80.55392097365753,2.8165780770649036,,,,3,0,3,3
1788945190.9413319,279138879.0,-8.6484375,0.578125,4.06640625,0.00390625,0.08203125,-0.02734375,16.0625,1.5,-32.9375,16.0625,1.5,-32.9375,-0.044894927287918454,-0.5437269385628416,-0.0011721202524491376,0.838059716201063,6.53997258292425,65.70741591083741,-169.64110189765123,0.619873046875,0.3863525390625,0.384033203125,-0.5648193359375,6.339297784129793,65.85909584518552,-80.57260807704662,2.7314623860191354,,,,3,0,3,3
1788945190.943285,279142461.0,-8.6875,0.6171875,4.02734375,0.001953125,0.091796875,-0.021484375,19.3125,2.6875,-39.1875,19.3125,2.6875,-39.1875,-0.044933134241172616,-0.5438312999675423,-0.001347135671679947,0.8379896871969009,6.510052500423697,65.72337741944285,-169.65345442456663,0.619873046875,0.3863525390625,0.384033203125,-0.5648193359375,6.339297784129793,65.85909584518552,-80.57260807704662,2.710089873282418,,,,3,0,3,3
1788945190.943285,279146814.0,-8.7265625,0.69140625,4.06640625,0.001953125,0.091796875,-0.021484375,19.3125,2.6875,-39.1875,19.3125,2.6875,-39.1875,-0.04500876079716175,-0.543945633803186,-0.0015306586614642745,0.8379111026845368,6.484242309073321,65.74050368987803,-169.65789782626226,0.619873046875,0.3863525390625,0.384033203125,-0.5648193359375,6.339297784129793,65.85909584518552,-80.57260807704662,2.6882200682207005,,,,3,0,3,3
1788945190.943285,279150121.0,-8.6875,0.5390625,4.02734375,-0.001953125,0.107421875,-0.041015625,19.3125,2.6875,-39.1875,19.3125,2.6875,-39.1875,-0.044998313189110135,-0.5440634513528334,-0.0017258167569884854,0.8378347893640482,6.442885666462645,65.7589084722877,-169.6840708679485,0.61962890625,0.38653564453125,0.3843994140625,-0.564697265625,6.31312213455915,65.9122165164026,-80.59279833602054,2.729455355737371,,,,3,0,3,3
1788945190.943285,279154480.0,-8.73046875,0.69140625,4.02734375,-0.017578125,0.11328125,-0.041015625,18.75,-1.0625,-39.375,18.75,-1.0625,-39.375,-0.044975816889879595,-0.5442353169146731,-0.0016084670983652614,0.8377246018540144,6.474824506393905,65.78088577900473,-169.6638875231705,0.61962890625,0.38653564453125,0.3843994140625,-0.564697265625,6.31312213455915,65.9122165164026,-80.59279833602054,2.739458928309725,,,,3,0,3,3
1788945190.9595466,279157810.0,-8.6875,0.578125,4.02734375,-0.03125,0.115234375,-0.046875,18.75,-1.0625,-39.375,18.75,-1.0625,-39.375,-0.04494792998825373,-0.5443574391042165,-0.0015470852562200078,0.8376468639044022,6.490632474297618,65.79686423809295,-169.65559697594512,0.61932373046875,0.38671875,0.3848876953125,-0.5645751953125,6.263851411458039,65.98005208741498,-80.6355010979266,2.7760207932936565,,,,3,0,3,3
1788945190.9556115,279162193.0,-8.7265625,0.578125,3.953125,-0.033203125,0.125,-0.052734375,18.75,-1.0625,-39.375,18.75,-1.0625,-39.375,-0.044901894210014594,-0.5445631950277217,-0.0014666202696741642,0.837515728534418,6.51210481701264,65.82406236631114,-169.64480921190543,0.61932373046875,0.38671875,0.3848876953125,-0.5645751953125,6.263851411458039,65.98005208741498,-80.6355010979266,2.780725473343845,,,,3,0,3,3
1788945190.9595466,279165946.0,-8.6875,0.6171875,3.98828125,-0.033203125,0.125,-0.052734375,18.1875,-0.875,-41.0625,18.1875,-0.875,-41.0625,-0.044868288191181147,-0.5447242037291122,-0.0014032915675999803,0.8374129264342974,6.529384582501261,65.84532456841475,-169.63571891188042,0.61932373046875,0.38671875,0.3848876953125,-0.5645751953125,6.263851411458039,65.98005208741498,-80.6355010979266,2.784703861242893,,,,3,0,2,3
1788945190.9595466,279169852.0,-8.76171875,0.5390625,3.9140625,-0.037109375,0.126953125,-0.05859375,18.1875,-0.875,-41.0625,18.1875,-0.875,-41.0625,-0.04480941806543998,-0.5449231288638027,-0.0013422805812055795,0.8372867477541738,6.544116723816064,65.87194421139279,-169.63111605158824,0.61895751953125,0.3868408203125,0.38543701171875,-0.564453125,6.18743603115008,66.04227197344015,-80.69009455169459,2.9989860237117747,,,,3,0,2,3
1788945190.9767148,279173635.0,-8.8359375,0.84765625,4.02734375,-0.04296875,0.134765625,-0.056640625,19.0625,0.3125,-39.1875,19.0625,0.3125,-39.1875,-0.044849768355044645,-0.5451051292244812,-0.0013175809877697198,0.8371661485941732,6.564672734793412,65.89594969901108,-169.60943380075406,0.61895751953125,0.3868408203125,0.38543701171875,-0.564453125,6.18743603115008,66.04227197344015,-80.69009455169459,2.9992906078500337,,,,3,0,2,3
1788945190.9767148,279177541.0,-8.6875,0.42578125,4.02734375,-0.064453125,0.13671875,-0.064453125,19.0625,0.3125,-39.1875,19.0625,0.3125,-39.1875,-0.044800328239397745,-0.5452047466702027,-0.0014603397294054993,0.8371036866516579,6.528590507045085,65.91157555441531,-169.6378914347062,0.61865234375,0.386962890625,0.3861083984375,-0.56427001953125,6.107367000019053,66.12587803436493,-80.74996406702738,2.972849904155419,,,,3,0,2,3
1788945190.9828303,279181824.0,-8.6484375,0.234375,3.76171875,-0.048828125,0.146484375,-0.05859375,19.0625,0.3125,-39.1875,19.0625,0.3125,-39.1875,-0.04461084903557778,-0.5455263249683684,-0.0017551681614631379,0.8369037102914265,6.446101627154098,65.96018715103688,-169.71199451382063,0.61865234375,0.386962890625,0.3861083984375,-0.56427001953125,6.107367000019053,66.12587803436493,-80.74996406702738,2.932065722132904,,,,3,0,2,3
1788945190.9867654,279185477.0,-8.69140625,0.46484375,3.68359375,-0.048828125,0.146484375,-0.05859375,15.875,0.8125,-34.3125,15.875,0.8125,-34.3125,-0.04458539650913964,-0.5458587233702422,-0.001920158807138975,0.8366879403510532,6.419309050703126,66.00740876536716,-169.72755843988514,0.61865234375,0.386962890625,0.3861083984375,-0.56427001953125,6.107367000019053,66.12587803436493,-80.74996406702738,2.9083660560455424,,,,3,0,3,3
1788945190.9867654,279189383.0,-8.80078125,0.34765625,3.8359375,-0.033203125,0.14453125,-0.0625,15.875,0.8125,-34.3125,15.875,0.8125,-34.3125,-0.04445901179384002,-0.5461496405327019,-0.002216176825913132,0.8365040675194546,6.344282942536399,66.0513825681632,-169.7888397086672,0.6182861328125,0.3870849609375,0.3868408203125,-0.5640869140625,6.011863761515152,66.2136457833484,-80.8210916721569,2.9263571139489737,,,,3,0,3,3
1788945190.9929073,279193566.0,-8.87890625,0.5,3.875,-0.0390625,0.1484375,-0.078125,15.75,0.4375,-33.75,15.75,0.4375,-33.75,-0.04441218171885915,-0.5464637763156469,-0.0022082231799263395,0.8363013948572614,6.353735529281223,66.09420598481246,-169.78423342765947,0.6182861328125,0.3870849609375,0.3868408203125,-0.5640869140625,6.011863761515152,66.2136457833484,-80.8210916721569,2.9215884851416574,,,,3,0,3,3
1788945190.9929073,279197072.0,-8.8359375,0.73046875,3.9140625,-0.03515625,0.158203125,-0.0859375,15.75,0.4375,-33.75,15.75,0.4375,-33.75,-0.044399903524910814,-0.5466863480789546,-0.0021990780336200518,0.8361565938548094,6.364491585739602,66.12435202326061,-169.77546767232383,0.617919921875,0.38726806640625,0.3875732421875,-0.56396484375,5.921156645144972,66.31811132478757,-80.91305228292049,2.6999436888970303,,,,3,0,3,3
1788945190.9929073,279201425.0,-8.8359375,0.5,3.76171875,-0.03515625,0.158203125,-0.0859375,15.75,0.4375,-33.75,15.75,0.4375,-33.75,-0.044314007140529396,-0.54708002217658,-0.0022604115189957127,0.8359034684975213,6.355421199751447,66.1791152824835,-169.7869629782394,0.617919921875,0.38726806640625,0.3875732421875,-0.56396484375,5.921156645144972,66.31811132478757,-80.91305228292049,2.684279472470632,,,,3,0,3,3
1788945190.9929073,279205408.0,-8.796875,0.46484375,3.76171875,-0.052734375,0.15625,-0.0859375,15.5,-0.375,-33.5,15.5,-0.375,-33.5,-0.044214010437987485,-0.5473801710935892,-0.0022717260775678523,0.8357122165166493,6.351505167127188,66.22071053127075,-169.79852166873525,0.617919921875,0.38726806640625,0.3875732421875,-0.56396484375,5.921156645144972,66.31811132478757,-80.91305228292049,2.6767733927616013,,,,3,0,3,3
1788945191.0101154,279209114.0,-8.796875,0.5,3.8359375,-0.046875,0.150390625,-0.08203125,15.5,-0.375,-33.5,15.5,-0.375,-33.5,-0.04413398837312312,-0.5476140579226212,-0.002254858226196027,0.8355632532909647,6.35417806687737,66.25283406177623,-169.80410293408934,0.617431640625,0.38739013671875,0.38836669921875,-0.56378173828125,5.8025678345779665,66.40343731957061,-80.99513354072172,2.9740111393140154,,,,3,0,3,3
1788945191.0125134,279213097.0,-8.80078125,0.42578125,3.72265625,-0.044921875,0.146484375,-0.078125,16.6875,0.9375,-33.5625,16.6875,0.9375,-33.5625,-0.04405942780267352,-0.5479600289581812,-0.0025318510934096822,0.8353395496538465,6.293503587002991,66.30368907546553,-169.8483662937278,0.617431640625,0.38739013671875,0.38836669921875,-0.56378173828125,5.8025678345779665,66.40343731957061,-80.99513354072172,2.9370641517593046,,,,3,0,3,3
1788945191.0125134,279217050.0,-8.73046875,0.42578125,3.72265625,-0.044921875,0.146484375,-0.078125,16.6875,0.9375,-33.5625,16.6875,0.9375,-33.5625,-0.04399490101413704,-0.5482960928388281,-0.0028232274399478245,0.8351214717927291,6.230304319032699,66.3532974374968,-169.8931252952808,0.617431640625,0.38739013671875,0.38836669921875,-0.56378173828125,5.8025678345779665,66.40343731957061,-80.99513354072172,2.8994419594924827,,,,3,0,3,3
1788945191.0125134,279220757.0,-8.69140625,0.5,3.796875,-0.0546875,0.1484375,-0.083984375,16.6875,0.9375,-33.5625,16.6875,0.9375,-33.5625,-0.04409831164591507,-0.5485032297301189,-0.003037380726403862,0.834979233396814,6.205384374189373,66.3832282563317,-169.89195394889492,0.6170654296875,0.38751220703125,0.38909912109375,-0.56365966796875,5.698382693896239,66.49844277958427,-81.09009039787315,2.7618370160992924,,,,3,0,3,3
1788945191.0269468,279224539.0,-8.7265625,0.46484375,3.76171875,-0.052734375,0.1484375,-0.087890625,15.9375,0.375,-34.0,15.9375,0.375,-34.0,-0.044036590887570046,-0.5487657417236512,-0.0030451768557545615,0.8348099581769547,6.206249044319502,66.41942541510149,-169.895813084063,0.6170654296875,0.38751220703125,0.38909912109375,-0.56365966796875,5.698382693896239,66.49844277958427,-81.09009039787315,2.7563230262217515,,,,3,0,3,3
1788945191.0300207,279228246.0,-8.7265625,0.34765625,3.76171875,-0.060546875,0.150390625,-0.099609375,15.9375,0.375,-34.0,15.9375,0.375,-34.0,-0.04379902355331445,-0.5490404386716042,-0.0031688260694005296,0.8346413605737557,6.152582174554229,66.45997545440046,-169.95920201908763,0.61663818359375,0.3875732421875,0.389892578125,-0.5634765625,5.572892907881898,66.58089949286985,-81.17678340771042,2.962075677726342,,,,3,0,3,3
1788945191.03603,279233005.0,-8.7578125,0.2734375,3.72265625,-0.048828125,0.150390625,-0.091796875,16.0,2.375,-33.5,16.0,2.375,-33.5,-0.043673020430625875,-0.5493652084412005,-0.003635095430600193,0.83443233465754,6.036927280273394,66.51058115292808,-170.04703726977618,0.61663818359375,0.3875732421875,0.389892578125,-0.5634765625,5.572892907881898,66.58089949286985,-81.17678340771042,2.903654732427359,,,,3,0,3,3
1788945191.0370405,279236182.0,-8.796875,0.38671875,3.72265625,-0.048828125,0.150390625,-0.091796875,16.0,2.375,-33.5,16.0,2.375,-33.5,-0.04361061977230632,-0.5495894736075607,-0.003942706543132691,0.8342865091849171,5.964121768559885,66.54515637194027,-170.0997837979643,0.61663818359375,0.3875732421875,0.389892578125,-0.5634765625,5.572892907881898,66.58089949286985,-81.17678340771042,2.8656239557222416,,,,3,0,3,3
1788945191.041038,279240288.0,-8.80078125,0.38671875,3.64453125,-0.048828125,0.146484375,-0.09765625,16.0,2.375,-33.5,16.0,2.375,-33.5,-0.043518895831479464,-0.5498950959675406,-0.004332689997942252,0.8340879551545147,5.870550913167415,66.59195610300627,-170.1689928179891,0.6162109375,0.38763427734375,0.39068603515625,-0.56341552734375,5.432866454314679,66.67712045609241,-81.3071473466992,2.7196436468162597,,,,3,0,3,3
1788945191.042889,279244447.0,-8.80078125,0.2734375,3.72265625,-0.05859375,0.134765625,-0.09765625,19.375,0.8125,-39.0625,19.375,0.8125,-39.0625,-0.043315167300470706,-0.5501965667227485,-0.004696073306579511,0.8338977642035813,5.765125392157597,66.63863198417314,-170.26153424041132,0.6162109375,0.38763427734375,0.39068603515625,-0.56341552734375,5.432866454314679,66.67712045609241,-81.3071473466992,2.6692696775806137,,,,3,0,3,3
1788945191.042889,279248354.0,-8.76171875,0.234375,3.64453125,-0.046875,0.130859375,-0.09375,19.375,0.8125,-39.0625,19.375,0.8125,-39.0625,-0.04312885109005059,-0.55049202946298,-0.004991450000296578,0.8337106891052052,5.6781277613978975,66.68354272263593,-170.33982502239928,0.61578369140625,0.38763427734375,0.3914794921875,-0.56329345703125,5.286645031839643,66.75665845684975,-81.41844324943823,2.8083615038994156,,,,3,0,3,3
1788945191.042889,279252813.0,-8.7265625,0.1953125,3.60546875,-0.044921875,0.126953125,-0.08984375,19.0625,2.9375,-40.5,19.0625,2.9375,-40.5,-0.043000152851624084,-0.5507692038222649,-0.005408640203919537,0.833531653620227,5.569904431623627,66.72694190509193,-170.42447823967552,0.61578369140625,0.38763427734375,0.3914794921875,-0.56329345703125,5.286645031839643,66.75665845684975,-81.41844324943823,2.7551937761398935,,,,3,0,2,3
1788945191.042889,279255989.0,-8.7265625,0.234375,3.53125,-0.044921875,0.126953125,-0.08984375,19.0625,2.9375,-40.5,19.0625,2.9375,-40.5,-0.042914572854962856,-0.5509816518726257,-0.005695600562264873,0.8333937357999661,5.496695437049452,66.75971989958452,-170.48125390730814,0.61578369140625,0.38763427734375,0.3914794921875,-0.56329345703125,5.286645031839643,66.75665845684975,-81.41844324943823,2.718688733474078,,,,3,0,2,3
1788945191.0592952,279259896.0,-8.73046875,0.2734375,3.56640625,-0.033203125,0.126953125,-0.087890625,19.0625,2.9375,-40.5,19.0625,2.9375,-40.5,-0.04280859472462516,-0.5512394692458853,-0.00603118534139147,0.8332263177352207,5.410327347645873,66.79934554540137,-170.54890348239735,0.6153564453125,0.3876953125,0.39215087890625,-0.563232421875,5.162148272004754,66.83128157843274,-81.52572868408916,2.7860139391882344,,,,3,0,2,3
1788945191.0592952,279263679.0,-8.80078125,0.2734375,3.60546875,-0.02734375,0.111328125,-0.076171875,19.8125,0.9375,-38.3125,19.8125,0.9375,-38.3125,-0.0426708087101036,-0.5515167435782818,-0.006231893353001631,0.8330484062418404,5.352008152880259,66.84028987265133,-170.6023112520478,0.6153564453125,0.3876953125,0.39215087890625,-0.563232421875,5.162148272004754,66.83128157843274,-81.52572868408916,2.7583885063136075,,,,3,0,2,3
1788945191.0695996,279267785.0,-8.80078125,0.42578125,3.60546875,-0.021484375,0.109375,-0.078125,19.8125,0.9375,-38.3125,19.8125,0.9375,-38.3125,-0.042599727761746954,-0.5518185090532285,-0.006303468652207703,0.8328516449787727,5.336473802756703,66.88269499895821,-170.61811128476523,0.61492919921875,0.38775634765625,0.39276123046875,-0.563232421875,5.038700049062635,66.901912303249,-81.64257137421029,2.798026204399814,,,,3,0,2,3
1788945191.07265,279271668.0,-8.8359375,0.38671875,3.64453125,-0.041015625,0.107421875,-0.0859375,19.8125,0.9375,-38.3125,19.8125,0.9375,-38.3125,-0.0425260906087209,-0.5521036759252078,-0.006431304930268147,0.8326654195799811,5.306136369211588,66.92349071707483,-170.64425806248474,0.61492919921875,0.38775634765625,0.39276123046875,-0.563232421875,5.038700049062635,66.901912303249,-81.64257137421029,2.7797174071892887,,,,3,0,2,3
1788945191.076585,279275521.0,-8.76171875,0.1953125,3.60546875,-0.041015625,0.107421875,-0.0859375,19.5625,2.4375,-37.5625,19.5625,2.4375,-37.5625,-0.04241134563892555,-0.5523102632288106,-0.006779685510794941,0.8325314929524243,5.212232010953184,66.95628178667569,-170.7190663119911,0.61492919921875,0.38775634765625,0.39276123046875,-0.563232421875,5.038700049062635,66.901912303249,-81.64257137421029,2.7369195087866234,,,,3,0,2,3
1788945191.076585,279279627.0,-8.80078125,0.1953125,3.4921875,-0.0390625,0.1015625,-0.08203125,19.5625,2.4375,-37.5625,19.5625,2.4375,-37.5625,-0.042295385026132865,-0.5525518289535865,-0.0071178331145717475,0.8323742626831339,5.121875917136434,66.99370889370631,-170.7913090344164,0.61456298828125,0.3878173828125,0.39337158203125,-0.56317138671875,4.928457887348513,66.97269429650048,-81.74023816662161,2.7268694116321606,,,,3,0,2,3
1788945191.076585,279283510.0,-8.87890625,0.2734375,3.4140625,-0.01953125,0.091796875,-0.083984375,15.9375,1.375,-33.9375,15.9375,1.375,-33.9375,-0.04216675588197335,-0.5528103255311432,-0.007311701811928589,0.8322074547257765,5.064997508270992,67.03191690848247,-170.84306693919723,0.61456298828125,0.3878173828125,0.39337158203125,-0.56317138671875,4.928457887348513,66.97269429650048,-81.74023816662161,2.7006964199171333,,,,3,0,3,3
1788945191.08686,279287116.0,-8.875,0.2734375,3.56640625,-0.03125,0.078125,-0.072265625,15.9375,1.375,-33.9375,15.9375,1.375,-33.9375,-0.04207287609513839,-0.5530182130307629,-0.007532295712674935,0.8320721084585408,5.004941168871773,67.06328573611017,-170.89286746133166,0.6142578125,0.3878173828125,0.39385986328125,-0.56317138671875,4.82310394357351,67.02544744514209,-81.83668075495092,2.6953769508937673,,,,3,0,3,3
1788945191.088839,279291469.0,-8.87890625,0.2734375,3.53125,-0.03125,0.078125,-0.072265625,15.9375,1.375,-33.9375,15.9375,1.375,-33.9375,-0.04196215018831613,-0.5532750864515432,-0.007781487762556632,0.8319046250092684,4.937088458530866,67.10174592232349,-170.94954451693252,0.6142578125,0.3878173828125,0.39385986328125,-0.56317138671875,4.82310394357351,67.02544744514209,-81.83668075495092,2.663132747208944,,,,3,0,3,3
1788945191.0947766,279295252.0,-8.87890625,0.2734375,3.53125,-0.021484375,0.068359375,-0.083984375,15.625,-1.0,-34.5625,15.625,-1.0,-34.5625,-0.04181133305966131,-0.553433374320333,-0.007744309377050387,0.8318072723224152,4.92826038718345,67.12386590628172,-170.974085015921,0.6142578125,0.3878173828125,0.39385986328125,-0.56317138671875,4.82310394357351,67.02544744514209,-81.83668075495092,2.6641274736081995,,,,3,0,3,3
1788945191.0947766,279299158.0,-8.80078125,0.1953125,3.53125,-0.025390625,0.0625,-0.0859375,15.625,-1.0,-34.5625,15.625,-1.0,-34.5625,-0.041634968158610224,-0.5535825938953692,-0.007716993340911233,0.8317170727935568,4.91245548357236,67.14500648765738,-171.00689132877417,0.61395263671875,0.38775634765625,0.39434814453125,-0.563232421875,4.698125484047168,67.07507785371831,-81.95623113061065,2.6370717517548843,,,,3,0,3,3
1788945191.0947766,279302741.0,-8.83984375,0.1953125,3.56640625,-0.037109375,0.052734375,-0.072265625,16.1875,1.75,-34.1875,16.1875,1.75,-34.1875,-0.041539269869960156,-0.5537181757248717,-0.007996428416574946,0.8316289605726638,4.834260467955884,67.16709858896516,-171.07004725757523,0.61395263671875,0.38775634765625,0.39434814453125,-0.563232421875,4.698125484047168,67.07507785371831,-81.95623113061065,2.6016996325587787,,,,3,0,3,3
1788945191.109571,279307224.0,-8.796875,0.234375,3.53125,-0.02734375,0.041015625,-0.064453125,16.1875,1.75,-34.1875,16.1875,1.75,-34.1875,-0.04143694104987654,-0.553881389866119,-0.008301211471948846,0.8315223844037534,4.749785280477959,67.19325140284587,-171.13796551775346,0.61370849609375,0.38763427734375,0.39471435546875,-0.56329345703125,4.585432978713604,67.09961800967857,-82.05254985794417,2.699229031726266,,,,3,0,3,3
1788945191.1120577,279311377.0,-8.83984375,0.2734375,3.53125,-0.02734375,0.041015625,-0.064453125,16.1875,1.75,-34.1875,16.1875,1.75,-34.1875,-0.041357407151719705,-0.5540451810037448,-0.00856391815150361,0.8314145545912154,4.6791937074571095,67.21888336093096,-171.19359237716253,0.61370849609375,0.38763427734375,0.39471435546875,-0.56329345703125,4.585432978713604,67.09961800967857,-82.05254985794417,2.6671601316158497,,,,3,0,3,3
1788945191.1120577,279315360.0,-8.796875,0.1953125,3.60546875,-0.02734375,0.044921875,-0.060546875,15.4375,1.5,-33.3125,15.4375,1.5,-33.3125,-0.04124665364712693,-0.5541700041827102,-0.00885459889803154,0.8313338174917486,4.5949298031705474,67.23963146329719,-171.2631255254401,0.61370849609375,0.38763427734375,0.39471435546875,-0.56329345703125,4.585432978713604,67.09961800967857,-82.05254985794417,2.6317134477113284,,,,3,0,3,3
1788945191.1120577,279319066.0,-8.796875,0.1953125,3.56640625,-0.0390625,0.03515625,-0.0625,15.4375,1.5,-33.3125,15.4375,1.5,-33.3125,-0.04115626256004543,-0.5542885006561242,-0.009126420205003547,0.8312563554925257,4.518241843558128,67.25917665746198,-171.32495051614993,0.613525390625,0.38751220703125,0.39508056640625,-0.56329345703125,4.486529414917118,67.1242621392187,-82.12898274080584,2.714889484197474,,,,3,0,3,3
1788945191.1266172,279327402.0,-8.76171875,0.1953125,3.60546875,-0.0390625,0.029296875,-0.0546875,15.1875,1.0625,-33.125,15.1875,1.0625,-33.125,-0.04083417229051135,-0.5545386218489542,-0.009633489958143365,0.8310996830239064,4.350797460563211,67.30035743239179,-171.47739747857509,0.613525390625,0.38751220703125,0.39508056640625,-0.56329345703125,4.486529414917118,67.1242621392187,-82.12898274080584,2.653079633727435,,,,3,0,3,3
1788945191.1308818,279330908.0,-8.7578125,0.234375,3.60546875,-0.033203125,0.02734375,-0.048828125,15.1875,1.0625,-33.125,15.1875,1.0625,-33.125,-0.04071522335877469,-0.5546688278267163,-0.009759201026381682,0.8310171598826995,4.305410952146184,67.32008680643868,-171.52236895115598,0.6134033203125,0.38739013671875,0.3953857421875,-0.5633544921875,4.396302118401108,67.15194360184834,-82.21549425232644,2.5065829028624567,,,,3,0,3,3
1788945191.1358883,279334891.0,-8.73046875,0.1953125,3.68359375,-0.033203125,0.01953125,-0.044921875,16.125,3.0,-32.4375,16.125,3.0,-32.4375,-0.040685872118037404,-0.5546931543963679,-0.010063761207969318,0.8309987274275159,4.226644594823345,67.32665451958958,-171.5784246059715,0.6134033203125,0.38739013671875,0.3953857421875,-0.5633544921875,4.396302118401108,67.15194360184834,-82.21549425232644,2.469872434145352,,,,3,0,3,3
1788945191.13988,279338397.0,-8.80078125,0.1953125,3.64453125,-0.0390625,0.015625,-0.046875,16.125,3.0,-32.4375,16.125,3.0,-32.4375,-0.040662838415473,-0.5547245914176953,-0.010341642780924386,0.8309754579246369,4.155714875560192,67.33387445070491,-171.62833255467052,0.61334228515625,0.38720703125,0.3956298828125,-0.5633544921875,4.316969226613221,67.15857173026886,-82.26971465298821,2.534962319860032,,,,3,0,3,3
1788945191.1425636,279342380.0,-8.796875,0.234375,3.64453125,-0.0390625,0.01171875,-0.04296875,19.8125,0.4375,-38.375,19.8125,0.4375,-38.375,-0.04058738543603736,-0.5547538402049377,-0.010262509222374773,0.8309606018493306,4.163866527865881,67.33746430304724,-171.63299093163374,0.61334228515625,0.38720703125,0.3956298828125,-0.5633544921875,4.316969226613221,67.15857173026886,-82.26971465298821,2.5430361773457912,,,,3,0,3,3
1788945191.1445312,279346157.0,-8.80078125,0.1953125,3.64453125,-0.0390625,0.01171875,-0.04296875,19.8125,0.4375,-38.375,19.8125,0.4375,-38.375,-0.04047807638959261,-0.5547836118914591,-0.010201677488451015,0.8309468064111485,4.16195869487539,67.34148006840827,-171.64899794061344,0.61334228515625,0.38720703125,0.3956298828125,-0.5633544921875,4.316969226613221,67.15857173026886,-82.26971465298821,2.5485697486520453,,,,3,0,3,3
1788945191.1445312,279349863.0,-8.796875,0.1953125,3.60546875,-0.041015625,0.01171875,-0.03125,19.8125,0.4375,-38.375,19.8125,0.4375,-38.375,-0.04039639230367565,-0.5548465934091752,-0.010148034522180783,0.830909385352228,4.16409177549777,67.34998022206764,-171.65811767677815,0.61328125,0.3870849609375,0.3958740234375,-0.5633544921875,4.249645357568314,67.17534810537282,-82.32306610551832,2.5231612935100878,,,,3,0,3,3
1788945191.1445312,279354422.0,-8.80078125,0.15625,3.60546875,-0.033203125,0.0078125,-0.037109375,19.5,1.0625,-40.3125,19.5,1.0625,-40.3125,-0.04020263726018491,-0.5549481772415652,-0.010307364630245697,0.8308489795191238,4.096753778293002,67.36644825987146,-171.72842252266443,0.61328125,0.3870849609375,0.3958740234375,-0.5633544921875,4.249645357568314,67.17534810537282,-82.32306610551832,2.5015734027157395,,,,3,0,2,3
1788945191.1565843,279358705.0,-8.796875,0.1171875,3.64453125,-0.044921875,0.005859375,-0.029296875,19.5,1.0625,-40.3125,19.5,1.0625,-40.3125,-0.040014359523329115,-0.5549657950063499,-0.010520101976735115,0.8308436344218489,4.013942006943125,67.37188112394806,-171.809251370895,0.61322021484375,0.38690185546875,0.39605712890625,-0.5633544921875,4.179292733824512,67.17090810626509,-82.36422839561266,2.686371097181611,,,,3,0,2,3
1788945191.158559,279361958.0,-8.796875,0.1171875,3.64453125,-0.044921875,0.005859375,-0.029296875,19.5,1.0625,-40.3125,19.5,1.0625,-40.3125,-0.039867085357040664,-0.554979072208659,-0.010672709533310207,0.8308398992506126,3.952521674311276,67.37590015577217,-171.8702600120234,0.61322021484375,0.38690185546875,0.39605712890625,-0.5633544921875,4.179292733824512,67.17090810626509,-82.36422839561266,2.667837532034604,,,,3,0,2,3
1788945191.1625087,279366541.0,-8.796875,0.1171875,3.64453125,-0.033203125,0.005859375,-0.0234375,19.6875,0.25,-39.375,19.6875,0.25,-39.375,-0.03971868806644274,-0.5549919075660014,-0.010589855731275574,0.8308394931093024,3.948912989081499,67.37755766936904,-171.89300252579764,0.61322021484375,0.38690185546875,0.39605712890625,-0.5633544921875,4.179292733824512,67.17090810626509,-82.36422839561266,2.6755972394267267,,,,3,0,2,3
1788945191.1625087,279369471.0,-8.83984375,0.15625,3.64453125,-0.03515625,0.005859375,-0.01953125,19.6875,0.25,-39.375,19.6875,0.25,-39.375,-0.03965506643346237,-0.5550114495832171,-0.01052134689943046,0.8308303483847443,3.9560105021307375,67.37987262555751,-171.89684735564902,0.61322021484375,0.38671875,0.396240234375,-0.5633544921875,4.115889679754902,67.17360501941224,-82.40677752514105,2.703180487817445,,,,3,0,2,3
1788945191.1760912,279373354.0,-8.80078125,0.04296875,3.68359375,-0.03125,0.00390625,-0.0234375,18.6875,2.75,-38.875,18.6875,2.75,-38.875,-0.03962150013975118,-0.5550093407005592,-0.010788885213706651,0.8308299274927762,3.8844446498445837,67.3823341060798,-171.9490845335708,0.61322021484375,0.38671875,0.396240234375,-0.5633544921875,4.115889679754902,67.17360501941224,-82.40677752514105,2.6729768008206283,,,,3,0,2,3
1788945191.1760912,279377936.0,-8.83984375,0.1171875,3.64453125,-0.02734375,-0.001953125,-0.017578125,18.6875,2.75,-38.875,18.6875,2.75,-38.875,-0.03960532565012739,-0.5550198040737413,-0.01109005325484261,0.8308197433769242,3.807900549376399,67.38674268965757,-172.00209539442497,0.61322021484375,0.3865966796875,0.39642333984375,-0.5633544921875,4.064495777124786,67.18646214080168,-82.44841702054036,2.5351532754305244,,,,3,0,2,3
1788945191.174138,279381289.0,-8.8359375,0.1953125,3.53125,-0.02734375,-0.001953125,-0.017578125,18.6875,2.75,-38.875,18.6875,2.75,-38.875,-0.039611265362767184,-0.5550668888243281,-0.011289869868644116,0.830785312475847,3.7612921112076823,67.39508525042464,-172.031751570754,0.61322021484375,0.3865966796875,0.39642333984375,-0.5633544921875,4.064495777124786,67.18646214080168,-82.44841702054036,2.5117246908902784,,,,3,0,2,3
1788945191.1760912,279385672.0,-8.83984375,0.15625,3.64453125,-0.013671875,0.0,-0.013671875,15.625,-0.5,-34.4375,15.625,-0.5,-34.4375,-0.03953676296404941,-0.5550759374950157,-0.011122906062708809,0.8307850678419022,3.790484688800351,67.39506717855079,-172.02252484337419,0.61322021484375,0.3865966796875,0.39642333984375,-0.5633544921875,4.064495777124786,67.18646214080168,-82.44841702054036,2.530638337331107,,,,3,0,3,3
1788945191.194888,279389779.0,-8.7578125,0.1171875,3.72265625,-0.01953125,-0.013671875,-0.013671875,15.625,-0.5,-34.4375,15.625,-0.5,-34.4375,-0.03946316451770772,-0.5550154150317104,-0.010989266025270825,0.8308307792539059,3.809109849671817,67.38582618129517,-172.02096814266673,0.61322021484375,0.38653564453125,0.396484375,-0.5633544921875,4.043351518404578,67.18736165848277,-82.46261825373277,2.552743785709418,,,,3,0,3,3
1788945191.194888,279393561.0,-8.796875,0.1953125,3.56640625,-0.021484375,-0.017578125,-0.0078125,16.625,1.3125,-33.8125,16.625,1.3125,-33.8125,-0.039437173967564694,-0.555083818862177,-0.01112363763181931,0.8307845256338554,3.7741257400880217,67.39660790107244,-172.04706915901295,0.61322021484375,0.38653564453125,0.396484375,-0.5633544921875,4.043351518404578,67.18736165848277,-82.46261825373277,2.536691181541258,,,,3,0,3,3
1788945191.1965353,279397068.0,-8.796875,0.15625,3.64453125,-0.013671875,-0.015625,-0.005859375,16.625,1.3125,-33.8125,16.625,1.3125,-33.8125,-0.03936676699510782,-0.5550701674196857,-0.011305489919910254,0.8307945310332188,3.717141793831114,67.39678322413722,-172.0948394337189,0.61328125,0.3863525390625,0.396484375,-0.5633544921875,4.014273351911071,67.16403789704802,-82.46676311872237,2.696999843961222,,,,3,0,3,3
1788945191.1965353,279401621.0,-8.796875,0.15625,3.64453125,-0.013671875,-0.015625,-0.005859375,16.625,1.3125,-33.8125,16.625,1.3125,-33.8125,-0.039272779562469134,-0.5550536606173803,-0.01154007298727405,0.8308067821919438,3.643150115693073,67.39715186795468,-172.15720850585348,0.61328125,0.3863525390625,0.396484375,-0.5633544921875,4.014273351911071,67.16403789704802,-82.46676311872237,2.6704394013146384,,,,3,0,3,3
1788945191.1965353,279405204.0,-8.80078125,0.234375,3.56640625,-0.01171875,-0.017578125,-0.0078125,17.0,2.375,-33.0,17.0,2.375,-33.0,-0.03929184291134338,-0.5550705167898751,-0.011727980659326261,0.8307919877688431,3.600525715053666,67.40114608021995,-172.18274859227532,0.61328125,0.3863525390625,0.396484375,-0.5633544921875,4.014273351911071,67.16403789704802,-82.46676311872237,2.649866671299573,,,,3,0,3,3
1788945191.2101927,279409310.0,-8.7578125,0.1953125,3.68359375,0.00390625,-0.01953125,-0.00390625,17.0,2.375,-33.0,17.0,2.375,-33.0,-0.03929224277568732,-0.5550220680385483,-0.011927236486018738,0.8308214998889208,3.549745001920249,67.39636430035829,-172.21698519608242,0.61334228515625,0.38629150390625,0.396484375,-0.5633544921875,4.009218052057456,67.16103080218092,-82.46903093022698,2.5622864045893397,,,,3,0,3,3
1788945191.215351,279412693.0,-8.7578125,0.1953125,3.64453125,-0.01171875,-0.0234375,-0.00390625,16.6875,1.4375,-33.125,16.6875,1.4375,-33.125,-0.03927527935634355,-0.5549802266034576,-0.01211290464459171,0.8308475660743835,3.49969164000912,67.3924271686287,-172.2530596200995,0.61334228515625,0.38629150390625,0.396484375,-0.5633544921875,4.009218052057456,67.16103080218092,-82.46903093022698,2.541140902939095,,,,3,0,3,3
1788945191.2173572,279417046.0,-8.73046875,0.1953125,3.64453125,-0.01171875,-0.0234375,-0.00390625,16.6875,1.4375,-33.125,16.6875,1.4375,-33.125,-0.039257360091053406,-0.5549014125786726,-0.012345211424365565,0.8308976337382138,3.4367347004670648,67.38384453229818,-172.29822530415655,0.61334228515625,0.38629150390625,0.396484375,-0.5633544921875,4.009218052057456,67.16103080218092,-82.46903093022698,2.514738511936106,,,,3,0,3,3
1788945191.2213612,279420752.0,-8.73046875,0.1953125,3.68359375,0.0,-0.025390625,0.005859375,16.6875,1.4375,-33.125,16.6875,1.4375,-33.125,-0.039254716108202685,-0.5547793473202066,-0.01246293310817834,0.8309775077272374,3.403136684114394,67.36819868600543,-172.32219074080552,0.6134033203125,0.38616943359375,0.396484375,-0.56341552734375,3.985045057177705,67.1548319138215,-82.49380076994692,2.378589211381746,,,,3,0,3,3
1788945191.2261438,279424535.0,-8.73046875,0.234375,3.72265625,-0.01171875,-0.03515625,0.01171875,16.0,1.375,-33.625,16.0,1.375,-33.625,-0.03930893477067812,-0.5546093369732524,-0.012451767549164619,0.831088590027673,3.4090937175751597,67.3445567898817,-172.31249673246793,0.6134033203125,0.38616943359375,0.396484375,-0.56341552734375,3.985045057177705,67.1548319138215,-82.49380076994692,2.3805538935727117,,,,3,0,3,3
1788945191.2261438,279428441.0,-8.73046875,0.1953125,3.68359375,-0.009765625,-0.029296875,0.0078125,16.0,1.375,-33.625,16.0,1.375,-33.625,-0.03930393448728432,-0.5544525543357091,-0.012533607911772807,0.8311922006354131,3.382838651007013,67.32383077017101,-172.33224203744803,0.613525390625,0.3861083984375,0.3963623046875,-0.5633544921875,4.01229657166853,67.1299193554204,-82.44934922521215,2.533312810566991,,,,3,0,3,3
1788945191.228352,279432224.0,-8.76171875,0.1953125,3.72265625,-0.0078125,-0.03125,0.013671875,15.8125,1.5,-32.9375,15.8125,1.5,-32.9375,-0.0393291557148304,-0.554310862258678,-0.012643334322989709,0.8312838453801425,3.355243091579091,67.30530754304536,-172.34853816037506,0.613525390625,0.3861083984375,0.3963623046875,-0.5633544921875,4.01229657166853,67.1299193554204,-82.44934922521215,2.521629928146998,,,,3,0,3,3
1788945191.2305655,279436100.0,-8.7578125,0.1953125,3.68359375,-0.0078125,-0.03125,0.013671875,15.8125,1.5,-32.9375,15.8125,1.5,-32.9375,-0.03935118694727453,-0.554203500254532,-0.012808993274318167,0.8313518473442902,3.314549491346152,67.29201600650133,-172.3736089105868,0.613525390625,0.3861083984375,0.3963623046875,-0.5633544921875,4.01229657166853,67.1299193554204,-82.44934922521215,2.5037074789010907,,,,3,0,3,3
1788945191.2372062,279440883.0,-8.73046875,0.1953125,3.68359375,0.001953125,-0.02734375,0.021484375,15.8125,1.5,-32.9375,15.8125,1.5,-32.9375,-0.03938604724887639,-0.5540581258002043,-0.012960525505422859,0.8314447409753083,3.2782187400743212,67.27332989352503,-172.39438231477996,0.6136474609375,0.385986328125,0.39630126953125,-0.5633544921875,4.011298370367516,67.11287154950652,-82.44066427453636,2.4722861559705263,,,,3,0,3,3
1788945191.242639,279444266.0,-8.73046875,0.15625,3.72265625,-0.001953125,-0.03125,0.017578125,19.4375,0.875,-38.6875,19.4375,0.875,-38.6875,-0.03936125316828285,-0.5539467410171293,-0.01282918550849371,0.8315221655883338,3.302728393857352,67.2569588902415,-172.38266212117477,0.6136474609375,0.385986328125,0.39630126953125,-0.5633544921875,4.011298370367516,67.11287154950652,-82.44066427453636,2.4873936707372226,,,,3,0,3,3
1788945191.2486708,279448749.0,-8.80078125,0.15625,3.72265625,0.0,-0.029296875,0.02734375,19.4375,0.875,-38.6875,19.4375,0.875,-38.6875,-0.039324550877702584,-0.5538296895519557,-0.012615743515382031,0.8316051332721592,3.3452215190251637,67.23910825321116,-172.36072361041312,0.61376953125,0.38592529296875,0.39617919921875,-0.5633544921875,4.031371024282666,67.09492537642089,-82.41785162579596,2.4899065983879405,,,,3,0,3,3
1788945191.2533846,279452332.0,-8.796875,0.1953125,3.72265625,0.005859375,-0.029296875,0.03125,18.8125,2.0625,-40.3125,18.8125,2.0625,-40.3125,-0.039371586685737564,-0.5537440240733706,-0.012738499368112036,0.8316580815447695,3.3199678507533523,67.22830167604857,-172.37185166841178,0.61376953125,0.38592529296875,0.39617919921875,-0.5633544921875,4.031371024282666,67.09492537642089,-82.41785162579596,2.47676594369584,,,,3,0,2,3
1788945191.2553594,279456608.0,-8.7578125,0.15625,3.72265625,0.005859375,-0.029296875,0.03125,18.8125,2.0625,-40.3125,18.8125,2.0625,-40.3125,-0.03939696042680513,-0.5536361944182838,-0.012879671974983575,0.831726492176957,3.285937741419719,67.21471126486651,-172.39200279890275,0.61376953125,0.38592529296875,0.39617919921875,-0.5633544921875,4.031371024282666,67.09492537642089,-82.41785162579596,2.461627942626723,,,,3,0,2,3
1788945191.2600813,279460214.0,-8.80078125,0.1171875,3.72265625,0.0078125,-0.03125,0.03515625,18.8125,2.0625,-40.3125,18.8125,2.0625,-40.3125,-0.039402097830170166,-0.553564504154022,-0.013001188035157195,0.8317720742709315,3.2546311514190105,67.20597231786896,-172.4127664892836,0.61395263671875,0.38592529296875,0.39599609375,-0.56329345703125,4.086476922341502,67.07625708962047,-82.36078595015708,2.4019892364508224,,,,3,0,2,3
1788945191.261566,279464574.0,-8.80078125,0.1171875,3.72265625,0.025390625,-0.02734375,0.03125,19.875,0.125,-40.3125,19.875,0.125,-40.3125,-0.03935229907744416,-0.5534949181291675,-0.012715461088943,0.8318251554334006,3.3142179941742875,67.19402836136362,-172.38084284518376,0.61395263671875,0.38592529296875,0.39599609375,-0.56329345703125,4.086476922341502,67.07625708962047,-82.36078595015708,2.4348715495782,,,,3,0,2,3
1788945191.2701716,279467980.0,-8.796875,0.1171875,3.68359375,0.0234375,-0.025390625,0.03125,19.875,0.125,-40.3125,19.875,0.125,-40.3125,-0.03931035114203891,-0.5534630105941023,-0.01249362752306294,0.8318517304595315,3.3606473111723534,67.18779513132591,-172.3561860342167,0.614013671875,0.385986328125,0.39581298828125,-0.56329345703125,4.132577919991367,67.06041124477959,-82.32169103177216,2.500660339447797,,,,3,0,2,3
1788945191.2682185,279472010.0,-8.80078125,0.15625,3.72265625,0.0234375,-0.025390625,0.03125,19.875,0.125,-40.3125,19.875,0.125,-40.3125,-0.03928300165613461,-0.5534046790713952,-0.012226418587976698,0.8318957997557637,3.419670937058161,67.17746063613363,-172.32145028625624,0.614013671875,0.385986328125,0.39581298828125,-0.56329345703125,4.132577919991367,67.06041124477959,-82.32169103177216,2.53075886805094,,,,3,0,2,3
1788945191.276717,279475716.0,-8.796875,0.1953125,3.72265625,0.025390625,-0.02734375,0.0390625,19.1875,-0.5,-38.5625,19.1875,-0.5,-38.5625,-0.03928808398360422,-0.5533557399259978,-0.011963449602799905,0.8319319367721436,3.4832295763753147,67.16830840289724,-172.27915550744186,0.614013671875,0.385986328125,0.39581298828125,-0.56329345703125,4.132577919991367,67.06041124477959,-82.32169103177216,2.560496485210247,,,,3,0,2,3
1788945191.276717,279479422.0,-8.80078125,0.2734375,3.72265625,0.033203125,-0.025390625,0.041015625,19.1875,-0.5,-38.5625,19.1875,-0.5,-38.5625,-0.03930760074431682,-0.5533130429864758,-0.011683988783599433,0.8319633846455483,3.5533516132454883,67.15978347521597,-172.2304726989609,0.6141357421875,0.3861083984375,0.39556884765625,-0.56329345703125,4.206574500866263,67.05075302248287,-82.26992808235353,2.4279853151567825,,,,3,0,2,3
1788945191.276717,279483605.0,-8.80078125,0.34765625,3.68359375,0.02734375,-0.02734375,0.037109375,15.8125,-1.125,-35.1875,15.8125,-1.125,-35.1875,-0.03933068513871024,-0.5532746259321366,-0.011382417986488098,0.8319920228385336,3.6295688776694295,67.15160501383637,-172.17723155422823,0.6141357421875,0.3861083984375,0.39556884765625,-0.56329345703125,4.206574500866263,67.05075302248287,-82.26992808235353,2.4639095097639117,,,,3,0,3,3
1788945191.276717,279488088.0,-8.7578125,0.34765625,3.68359375,0.015625,-0.021484375,0.03125,15.8125,-1.125,-35.1875,15.8125,-1.125,-35.1875,-0.03935856966545205,-0.5532389653245895,-0.01108884115399901,0.8320183819137223,3.7046670859182202,67.14383769213998,-172.12405460840534,0.6142578125,0.38616943359375,0.3953857421875,-0.563232421875,4.2665363427021346,67.03507152988044,-82.21084324374566,2.520752013367777,,,,3,0,3,3
1788945191.2868168,279491664.0,-8.76171875,0.1953125,3.72265625,0.015625,-0.021484375,0.03125,15.8125,-1.125,-35.1875,15.8125,-1.125,-35.1875,-0.039352610409763886,-0.5532009367930621,-0.010859306891674397,0.8320469764616949,3.758474299976105,67.13648667677552,-172.08967400850926,0.6142578125,0.38616943359375,0.3953857421875,-0.563232421875,4.2665363427021346,67.03507152988044,-82.21084324374566,2.5475697190744246,,,,3,0,3,3
1788945191.2928064,279495547.0,-8.7578125,0.234375,3.796875,0.0078125,-0.0234375,0.033203125,15.9375,0.375,-34.3125,15.9375,0.375,-34.3125,-0.039372369231128926,-0.5530992513054266,-0.010649979955635417,0.8321163456353016,3.809257504369955,67.12048720797864,-172.05445549504546,0.6142578125,0.38616943359375,0.3953857421875,-0.563232421875,4.2665363427021346,67.03507152988044,-82.21084324374566,2.5726040241864814,,,,3,0,3,3
1788945191.3008058,279499154.0,-8.76171875,0.34765625,3.76171875,0.021484375,-0.01953125,0.03125,15.9375,0.375,-34.3125,15.9375,0.375,-34.3125,-0.03941231524374651,-0.5530405626750897,-0.010413360708733308,0.8321564560597349,3.871459963897633,67.11001063825303,-172.00844645589365,0.6143798828125,0.38616943359375,0.39520263671875,-0.563232421875,4.307352690542825,67.01621418380489,-82.17430030092834,2.57096745096509,,,,3,0,3,3
1788945191.3008058,279502936.0,-8.76171875,0.42578125,3.68359375,0.01171875,-0.021484375,0.03125,15.6875,1.8125,-33.875,15.6875,1.8125,-33.875,-0.039635550808731324,-0.5530303985724647,-0.010363791516456467,0.8321532269914435,3.919514935169435,67.10709891923864,-171.946003479829,0.6143798828125,0.38616943359375,0.39520263671875,-0.563232421875,4.307352690542825,67.01621418380489,-82.17430030092834,2.577663192057704,,,,3,0,3,3
1788945191.3047738,279507089.0,-8.7578125,0.2734375,3.72265625,0.01171875,-0.021484375,0.03125,15.6875,1.8125,-33.875,15.6875,1.8125,-33.875,-0.039729098234707855,-0.5529646071545782,-0.010499779641724941,0.8321907813808774,3.8991769084672705,67.09896711174748,-171.94729303231904,0.6143798828125,0.38616943359375,0.39520263671875,-0.563232421875,4.307352690542825,67.01621418380489,-82.17430030092834,2.5627663497467412,,,,3,0,3,3
1788945191.3126276,279510796.0,-8.7578125,0.234375,3.76171875,0.009765625,-0.029296875,0.029296875,15.6875,1.8125,-33.875,15.6875,1.8125,-33.875,-0.03978037885357211,-0.5528691185879888,-0.01061607598171888,0.8322502977474726,3.875719281478529,67.0867803938244,-171.95679743451484,0.614501953125,0.38623046875,0.39508056640625,-0.56317138671875,4.358195970623708,67.01152891305205,-82.12845275584654,2.449999772180986,,,,3,0,3,3
1788945191.3126276,279514579.0,-8.7578125,0.30859375,3.796875,0.0078125,-0.025390625,0.03125,15.6875,1.8125,-33.875,15.6875,1.8125,-33.875,-0.03988771876090014,-0.5527457294240953,-0.010677280938015026,0.832326332736894,3.8738176303352456,67.06998560222375,-171.94463095748554,0.614501953125,0.38623046875,0.39508056640625,-0.56317138671875,4.358195970623708,67.01152891305205,-82.12845275584654,2.444253157772752,,,,3,0,3,3
1788945191.3126276,279519261.0,-8.7578125,0.42578125,3.76171875,0.017578125,-0.013671875,0.02734375,15.6875,1.8125,-33.875,15.6875,1.8125,-33.875,-0.04012000106920896,-0.5526521925577119,-0.010599271930318012,0.832378276392355,3.9271653171770997,67.05534396009794,-171.8784109294722,0.6146240234375,0.38623046875,0.3948974609375,-0.5631103515625,4.405939617762306,66.98575530297617,-82.07057942267487,2.6033919817924813,,,,3,0,3,3
1788945191.3264084,279523244.0,-8.796875,0.5390625,3.68359375,0.0078125,-0.01953125,0.0234375,16.5625,2.3125,-33.75,16.5625,2.3125,-33.75,-0.04033523612635159,-0.5526610572024839,-0.010602905884594145,0.8323619422854861,3.9615155982344197,67.05557306806982,-171.8259540103389,0.6146240234375,0.38623046875,0.3948974609375,-0.5631103515625,4.405939617762306,66.98575530297617,-82.07057942267487,2.604195073106711,,,,3,0,3,3
1788945191.3271434,279526421.0,-8.80078125,0.30859375,3.72265625,0.0078125,-0.01953125,0.0234375,16.5625,2.3125,-33.75,16.5625,2.3125,-33.75,-0.04040216102298942,-0.5526408730634874,-0.010723563568611556,0.8323705520912479,3.942245487429461,67.0536748506901,-171.82968998884567,0.6146240234375,0.38623046875,0.3948974609375,-0.5631103515625,4.405939617762306,66.98575530297617,-82.07057942267487,2.591232437289113,,,,3,0,3,3
1788945191.3286047,279530327.0,-8.8359375,0.2734375,3.76171875,0.001953125,-0.017578125,0.013671875,16.5625,2.3125,-33.75,16.5625,2.3125,-33.75,-0.04045678682968809,-0.5526042696768358,-0.010895606761371352,0.8323899658739583,3.907872724064978,67.05009120484816,-171.84528183329763,0.61474609375,0.38623046875,0.394775390625,-0.5631103515625,4.437621621748943,66.97789056973552,-82.04729302267239,2.4198529980521113,,,,3,0,3,3
1788945191.3286047,279534886.0,-8.87890625,0.38671875,3.796875,0.013671875,-0.017578125,0.01953125,15.875,0.625,-32.75,15.875,0.625,-32.75,-0.04052237330286281,-0.5525434938239807,-0.01062551140973348,0.8324306116439818,3.982072212394013,67.03882030142523,-171.78791842424,0.61474609375,0.38623046875,0.394775390625,-0.5631103515625,4.437621621748943,66.97789056973552,-82.04729302267239,2.4530286897645235,,,,3,0,3,3
1788945191.3286047,279538793.0,-8.87890625,0.578125,3.64453125,0.017578125,-0.017578125,0.01171875,15.875,0.625,-32.75,15.875,0.625,-32.75,-0.04058871630618094,-0.5525547757118704,-0.01040921588196,0.8324226235340699,4.04589294288605,67.03791067988828,-171.73649780827765,0.61480712890625,0.38623046875,0.39471435546875,-0.56304931640625,4.460485068119402,66.96705070385524,-82.01420295205641,2.581845011358576,,,,3,0,3,3
1788945191.3466532,279543052.0,-8.796875,0.30859375,3.68359375,0.009765625,-0.021484375,0.005859375,19.0,2.75,-38.875,19.0,2.75,-38.875,-0.040638168003340365,-0.5525476499670963,-0.010585065883221195,0.8324227232586935,4.010836640434898,67.0384348358017,-171.75291676897368,0.61480712890625,0.38623046875,0.39471435546875,-0.56304931640625,4.460485068119402,66.96705070385524,-82.01420295205641,2.5622303173093095,,,,3,0,3,3
1788945191.3436847,279546229.0,-8.796875,0.1953125,3.72265625,0.009765625,-0.021484375,0.005859375,19.0,2.75,-38.875,19.0,2.75,-38.875,-0.040639948442227604,-0.5525228238384642,-0.0107243729484962,0.8324373319073599,3.976304335918708,67.03640402591974,-171.77576026421653,0.61480712890625,0.38623046875,0.39471435546875,-0.56304931640625,4.460485068119402,66.96705070385524,-82.01420295205641,2.546593698401906,,,,3,0,3,3
1788945191.3525178,279550135.0,-8.76171875,0.34765625,3.76171875,0.009765625,-0.0234375,0.005859375,19.0,2.75,-38.875,19.0,2.75,-38.875,-0.040712380166178355,-0.5524610945296804,-0.010875528658459711,0.8324728007620857,3.948998172149311,67.0291034052246,-171.78451150915905,0.6148681640625,0.38623046875,0.39459228515625,-0.5631103515625,4.4782022368898495,66.95902949359733,-82.01103874757533,2.392942126649588,,,,3,0,3,3
1788945191.3575234,279553918.0,-8.796875,0.578125,3.68359375,0.015625,-0.0234375,0.009765625,18.6875,1.25,-39.4375,18.6875,1.25,-39.4375,-0.04080170421851827,-0.5524442190568165,-0.010674918765555524,0.8324822231572979,4.011665675440058,67.02438916583519,-171.7310163464823,0.6148681640625,0.38623046875,0.39459228515625,-0.5631103515625,4.4782022368898495,66.95902949359733,-82.01103874757533,2.4178737140055238,,,,3,0,3,3
1788945191.3592808,279558800.0,-8.80078125,0.46484375,3.64453125,0.0078125,-0.021484375,-0.009765625,18.6875,1.25,-39.4375,18.6875,1.25,-39.4375,-0.04087219743960562,-0.5524623817952284,-0.010470351196585419,0.8324693098988223,4.073522895197712,67.02449997395088,-171.6802535189392,0.6148681640625,0.38623046875,0.39447021484375,-0.56317138671875,4.489029806243783,66.94396072909083,-82.006491238619,2.5054977915407273,,,,3,0,3,3
1788945191.3573277,279561954.0,-8.80078125,0.30859375,3.72265625,0.0078125,-0.021484375,-0.009765625,18.6875,1.25,-39.4375,18.6875,1.25,-39.4375,-0.040892395746808634,-0.5524338665445483,-0.010314545170103722,0.8324891862496836,4.113636276597824,67.01894698919035,-171.65131879422105,0.6148681640625,0.38623046875,0.39447021484375,-0.56317138671875,4.489029806243783,66.94396072909083,-82.006491238619,2.5239972220303803,,,,3,0,3,3
1788945191.3592808,279566536.0,-8.796875,0.34765625,3.796875,0.00390625,-0.025390625,-0.015625,19.1875,0.625,-40.4375,19.1875,0.625,-40.4375,-0.04087708123823137,-0.5523334739624226,-0.010112964483002695,0.8325590223638265,4.156429013905848,67.003278693689,-171.62635507818095,0.6148681640625,0.38623046875,0.39447021484375,-0.56317138671875,4.489029806243783,66.94396072909083,-82.006491238619,2.5481018070965042,,,,3,0,2,3
1788945191.3592808,279570243.0,-8.796875,0.6171875,3.64453125,0.015625,-0.01953125,-0.005859375,19.1875,0.625,-40.4375,19.1875,0.625,-40.4375,-0.04091423544810242,-0.5523294364926428,-0.009923069367366954,0.8325621608118804,4.208444335452576,67.0006326594299,-171.586958366134,0.6148681640625,0.38616943359375,0.3944091796875,-0.563232421875,4.478909962750035,66.92982287716407,-82.01592195876447,2.637098038796496,,,,3,0,2,3
1788945191.3710077,279574025.0,-8.76171875,0.42578125,3.68359375,0.001953125,-0.025390625,-0.017578125,18.5625,1.0625,-37.8125,18.5625,1.0625,-37.8125,-0.04096023751012865,-0.5523109338302192,-0.009766353608882804,0.8325740265297082,4.253269185323521,66.99628845551749,-171.55126202803808,0.6148681640625,0.38616943359375,0.3944091796875,-0.563232421875,4.478909962750035,66.92982287716407,-82.01592195876447,2.6553747152588354,,,,3,0,2,3
1788945191.3796449,279577932.0,-8.76171875,0.1953125,3.76171875,-0.009765625,-0.03125,-0.025390625,18.5625,1.0625,-37.8125,18.5625,1.0625,-37.8125,-0.04082135717519742,-0.5521632951843903,-0.009854309253243215,0.8326777316817308,4.203892746416779,66.97769779809165,-171.60471371540305,0.6148681640625,0.38604736328125,0.39434814453125,-0.5633544921875,4.449781601833681,66.91252947813001,-82.0477501824454,2.66199094401978,,,,3,0,2,3
1788945191.381804,279582161.0,-8.83984375,0.38671875,3.76171875,-0.009765625,-0.03125,-0.025390625,18.5625,1.0625,-37.8125,18.5625,1.0625,-37.8125,-0.04086646384736357,-0.5520927357866549,-0.009703292887749054,0.8327240775499131,4.24518623502814,66.96630457033109,-171.5720991817018,0.6148681640625,0.38604736328125,0.39434814453125,-0.5633544921875,4.449781601833681,66.91252947813001,-82.0477501824454,2.6799698698126364,,,,3,0,2,3
