pc_unix,dev_us,ax,ay,az,gx,gy,gz,mx_raw,my_raw,mz_raw,mx,my,mz,host_qw,host_qx,host_qy,host_qz,host_roll,host_pitch,host_yaw,chip_qw,chip_qx,chip_qy,chip_qz,chip_roll,chip_pitch,chip_yaw,diff_deg,rel_roll,rel_pitch,rel_yaw,cal_acc,cal_gyr,cal_mag,cal_rv
1788937869.1690893,3130669251.0,-9.15625,2.75390625,1.8828125,-0.166015625,0.02734375,0.126953125,18.8125,-19.5625,-30.5,18.8125,-19.5625,-30.5,0.06730525249208685,-0.5819267026611701,0.2340154376145908,0.7759304676805301,53.184638215972114,69.15882695416455,-151.83876842398283,0.50225830078125,0.57574462890625,0.245849609375,-0.59649658203125,52.82693435827846,69.03824357648129,-62.080952833550434,0.810159107529371,,,,3,0,2,3
1788937869.1691573,3130673234.0,-9.1171875,2.75390625,1.95703125,-0.166015625,0.0234375,0.12890625,18.8125,-19.5625,-30.5,18.8125,-19.5625,-30.5,0.06692083876795794,-0.5819807747422563,0.23402676279349038,0.7759197467943417,53.24587375294314,69.14160725784485,-151.74675049207903,0.50225830078125,0.57574462890625,0.245849609375,-0.59649658203125,52.82693435827846,69.03824357648129,-62.080952833550434,0.7995520320814223,,,,3,0,2,3
1788937869.1730924,3130677387.0,-9.12109375,2.75390625,1.921875,-0.166015625,0.0234375,0.12890625,18.9375,-19.9375,-29.8125,18.9375,-19.9375,-29.8125,0.06651991393890483,-0.5820198253961708,0.23405873861278345,0.7759152858233713,53.31040441495658,69.12102086363942,-151.6519247500862,0.50225830078125,0.57574462890625,0.245849609375,-0.59649658203125,52.82693435827846,69.03824357648129,-62.080952833550434,0.7902774923331461,,,,3,0,2,3
1788937869.1711392,3130682770.0,-9.16015625,2.71484375,1.921875,-0.154296875,0.01953125,0.1328125,18.9375,-19.9375,-29.8125,18.9375,-19.9375,-29.8125,0.0660337661105872,-0.5820699982776298,0.23411210580254738,0.7759030743301828,53.39293531807193,69.09581426017206,-151.53390134160674,0.50311279296875,0.5755615234375,0.24603271484375,-0.59588623046875,52.8813011945797,68.98759033517074,-61.92216725432784,0.7119973478732403,,,,3,0,2,3
1788937869.1730924,3130684876.0,-9.1953125,2.67578125,1.95703125,-0.15625,0.0078125,0.13671875,18.9375,-19.9375,-29.8125,18.9375,-19.9375,-29.8125,0.06585354333249784,-0.5820803102438267,0.23412806845299647,0.7759058388873449,53.42040071927182,69.08569018171524,-151.49298781763179,0.50311279296875,0.5755615234375,0.24603271484375,-0.59588623046875,52.8813011945797,68.98759033517074,-61.92216725432784,0.7063199371000848,,,,3,0,2,3
1788937869.18809,3130689559.0,-9.1953125,2.67578125,1.95703125,-0.146484375,0.0078125,0.134765625,18.9375,-19.9375,-29.8125,18.9375,-19.9375,-29.8125,0.06547068488846002,-0.5821030328148648,0.2341778467416781,0.7759061700382356,53.48291794765532,69.06369417434499,-151.40326114802204,0.50396728515625,0.57537841796875,0.24615478515625,-0.5953369140625,52.931878271754314,68.93861423104069,-61.78611661308192,0.0,,,,3,0,2,3
1788937869.1924088,3130693942.0,-9.27734375,2.828125,1.95703125,-0.138671875,0.01171875,0.13671875,18.9375,-19.9375,-29.8125,18.9375,-19.9375,-29.8125,0.06507346028029881,-0.5821133465753744,0.2342689576988333,0.7759043445971086,53.55433452562145,69.0380052788067,-151.3070615850234,0.50396728515625,0.57537841796875,0.24615478515625,-0.5953369140625,52.931878271754314,68.93861423104069,-61.78611661308192,0.0,,,,3,0,2,3
1788937869.1967273,3130697495.0,-9.31640625,2.90625,1.921875,-0.138671875,0.01171875,0.13671875,19.9375,-20.375,-29.4375,19.9375,-20.375,-29.4375,0.06473693598682607,-0.5821160810733891,0.234350223257048,0.7759059028865349,53.61421592793102,69.01541961168564,-151.22656221376056,0.50396728515625,0.57537841796875,0.24615478515625,-0.5953369140625,52.931878271754314,68.93861423104069,-61.78611661308192,0.0,,,,3,0,2,3
1788937869.1967273,3130700701.0,-9.2734375,2.90625,1.921875,-0.130859375,0.0078125,0.130859375,19.9375,-20.375,-29.4375,19.9375,-20.375,-29.4375,0.06444820011237827,-0.5821130608015567,0.23442919153132527,0.7759083503252736,53.66647902306658,68.9951117109287,-151.1574271044298,0.5047607421875,0.5751953125,0.2462158203125,-0.59478759765625,52.97478670373912,68.87529710201068,-61.64221760527465,0.5048510082637512,,,,3,0,2,3
1788937869.2040417,3130704607.0,-9.27734375,2.9453125,1.921875,-0.1328125,0.00390625,0.11328125,19.9375,-20.375,-29.4375,19.9375,-20.375,-29.4375,0.06411656972702359,-0.5821086202765711,0.23450495611043343,0.7759162617485151,53.7223444054526,68.97219360631581,-151.08090664171968,0.5047607421875,0.5751953125,0.2462158203125,-0.59478759765625,52.97478670373912,68.87529710201068,-61.64221760527465,0.4872521634796264,,,,3,0,2,3
1788937869.2090662,3130712867.0,-9.2734375,3.01953125,1.921875,-0.154296875,0.0,0.095703125,20.0,-19.375,-28.9375,20.0,-19.375,-28.9375,0.06337387951491684,-0.5821183790358225,0.23454365114485387,0.7759582591168007,53.81885825194322,68.92762696587003,-150.92680864083266,0.5054931640625,0.57501220703125,0.24627685546875,-0.59429931640625,53.00788091279927,68.81861747799479,-61.5185174291676,0.7293019065818092,,,,3,0,3,3
1788937869.2090662,3130716650.0,-9.234375,3.01953125,1.921875,-0.181640625,-0.0078125,0.08203125,19.0,-19.375,-29.4375,19.0,-19.375,-29.4375,0.06302751461171509,-0.5821189497338592,0.23450660611117174,0.7759972374002618,53.84877316041394,68.90837256098312,-150.86532834729118,0.5054931640625,0.57501220703125,0.24627685546875,-0.59429931640625,53.00788091279927,68.81861747799479,-61.5185174291676,0.7169957519272601,,,,3,0,3,3
1788937869.2090662,3130720556.0,-9.234375,2.9453125,1.8828125,-0.1953125,-0.009765625,0.064453125,19.0,-19.375,-29.4375,19.0,-19.375,-29.4375,0.06269977119136279,-0.5821442623159314,0.2344098176933119,0.7760340417238015,53.867722177207504,68.89504737756013,-150.8111033613199,0.5062255859375,0.57464599609375,0.24658203125,-0.5938720703125,52.96988064169179,68.77796876642907,-61.43930218083943,1.0206993299328235,,,,3,0,3,3
1788937869.2090662,3130724139.0,-9.234375,2.8671875,1.921875,-0.212890625,-0.015625,0.05859375,22.6875,-20.4375,-34.75,22.6875,-20.4375,-34.75,0.062388336296524995,-0.5822296642875064,0.23404347449641363,0.7761056407239002,53.83198241931934,68.8988993760455,-150.7895044908701,0.5062255859375,0.57464599609375,0.24658203125,-0.5938720703125,52.96988064169179,68.77796876642907,-61.43930218083943,1.0107933742092732,,,,3,0,2,3
1788937869.2256727,3130728292.0,-9.19921875,2.7890625,1.921875,-0.212890625,-0.015625,0.05859375,22.6875,-20.4375,-34.75,22.6875,-20.4375,-34.75,0.06205742004351008,-0.5823210744679247,0.23360814112442022,0.7761947431208601,53.782580621529355,68.90474589522202,-150.77403113590043,0.5062255859375,0.57464599609375,0.24658203125,-0.5938720703125,52.96988064169179,68.77796876642907,-61.43930218083943,1.0034757603077473,,,,3,0,2,3
1788937869.2286644,3130731798.0,-9.27734375,2.7890625,1.95703125,-0.22265625,-0.02734375,0.056640625,22.6875,-20.4375,-34.75,22.6875,-20.4375,-34.75,0.061783742913592864,-0.5823787384618853,0.23321848295541134,0.776290482556051,53.72971213059576,68.90872835878466,-150.77078890823532,0.507080078125,0.57415771484375,0.24700927734375,-0.59344482421875,52.899669671624046,68.74382708316433,-61.382081488652084,0.9681812745061277,,,,3,0,2,3
1788937869.2286644,3130735781.0,-9.23828125,2.7890625,2.03515625,-0.220703125,-0.03125,0.0546875,21.5625,-18.625,-35.375,21.5625,-18.625,-35.375,0.06145392400689033,-0.5823782707816616,0.23275378240285977,0.7764564647954701,53.649499291174045,68.90580651516859,-150.7841131882913,0.507080078125,0.57415771484375,0.24700927734375,-0.59344482421875,52.899669671624046,68.74382708316433,-61.382081488652084,0.956554014997701,,,,3,0,2,3
1788937869.2286644,3130740664.0,-9.19921875,2.71484375,2.03515625,-0.2265625,-0.029296875,0.064453125,21.5625,-18.625,-35.375,21.5625,-18.625,-35.375,0.06103506660076495,-0.5823769503142786,0.23218630667192675,0.7766603681028991,53.553296553897255,68.9012210445013,-150.79732846088234,0.50787353515625,0.5736083984375,0.2474365234375,-0.59307861328125,52.79671944597845,68.70496010197756,-61.34674715429591,1.2565267331745358,,,,3,0,2,3
1788937869.242909,3130744046.0,-9.19921875,2.67578125,2.07421875,-0.2265625,-0.03515625,0.06640625,21.5625,-19.0625,-35.4375,21.5625,-19.0625,-35.4375,0.06075377684902688,-0.5823629073550876,0.23179509979464366,0.7768097929652403,53.482874027129114,68.89709394758505,-150.8112157654275,0.50787353515625,0.5736083984375,0.2474365234375,-0.59307861328125,52.79671944597845,68.70496010197756,-61.34674715429591,1.249569724287537,,,,3,0,2,3
1788937869.242909,3130748400.0,-9.16015625,2.59765625,2.07421875,-0.2265625,-0.03515625,0.06640625,21.5625,-19.0625,-35.4375,21.5625,-19.0625,-35.4375,0.06040332192434224,-0.5823449882936566,0.23129192997178624,0.777000512509285,53.3911390544564,68.89248523073178,-150.83117090951268,0.50787353515625,0.5736083984375,0.2474365234375,-0.59307861328125,52.79671944597845,68.70496010197756,-61.34674715429591,1.24472315821122,,,,3,0,2,3
1788937869.2494416,3130752306.0,-9.12109375,2.5625,2.1484375,-0.236328125,-0.033203125,0.076171875,21.5625,-19.0625,-35.4375,21.5625,-19.0625,-35.4375,0.06006494759586213,-0.5823115618583767,0.23084172553349513,0.7771856565513048,53.30758324315569,68.88501963041661,-150.84855208015068,0.5087890625,0.57305908203125,0.24786376953125,-0.59271240234375,52.707564323274006,68.67603351534397,-61.32261701875178,0.7430687421867083,,,,3,0,2,3
1788937869.253386,3130755889.0,-9.078125,2.5625,2.1875,-0.234375,-0.03515625,0.08203125,22.4375,-19.875,-34.375,22.4375,-19.875,-34.375,0.059769466127535795,-0.5822602431809304,0.23044587912902095,0.7773643398832788,53.22843481689744,68.8762059840381,-150.86978258481423,0.5087890625,0.57305908203125,0.24786376953125,-0.59271240234375,52.707564323274006,68.67603351534397,-61.32261701875178,0.7342336764996976,,,,3,0,2,3
1788937869.2585754,3130759795.0,-9.04296875,2.5234375,2.1875,-0.224609375,-0.0234375,0.1015625,22.4375,-19.875,-34.375,22.4375,-19.875,-34.375,0.059428402144889536,-0.5822127821395663,0.23005320271630714,0.7775423237687972,53.15636479608914,68.86501531245744,-150.8804595610927,0.50970458984375,0.57257080078125,0.24822998046875,-0.59222412109375,52.647350010829534,68.62711675969014,-61.244065286962275,0.9424986727392988,,,,3,0,2,3
1788937869.2573323,3130763578.0,-9.04296875,2.484375,2.2265625,-0.21484375,-0.013671875,0.11328125,18.9375,-21.4375,-30.375,18.9375,-21.4375,-30.375,0.05913989748707792,-0.5821365533450459,0.2300020360226393,0.7776365276980043,53.157219627195644,68.8415641496758,-150.8519109458322,0.50970458984375,0.57257080078125,0.24822998046875,-0.59222412109375,52.647350010829534,68.62711675969014,-61.244065286962275,0.9302299398252267,,,,3,0,2,3
1788937869.2593,3130767554.0,-9.04296875,2.484375,2.2265625,-0.21484375,-0.013671875,0.11328125,18.9375,-21.4375,-30.375,18.9375,-21.4375,-30.375,0.05883709877772361,-0.5820574456753715,0.22994765833709221,0.7777347878078814,53.15815816086182,68.8170789379134,-150.82184484426298,0.50970458984375,0.57257080078125,0.24822998046875,-0.59222412109375,52.647350010829534,68.62711675969014,-61.244065286962275,0.9187673531941248,,,,3,0,2,3
1788937869.2593,3130771260.0,-9.078125,2.5234375,2.1484375,-0.201171875,-0.00390625,0.130859375,18.9375,-21.4375,-30.375,18.9375,-21.4375,-30.375,0.05852151843389983,-0.5820121282376819,0.22993725535766638,0.7777955856541088,53.180084839248366,68.79392968282089,-150.7733665525076,0.51068115234375,0.5721435546875,0.24853515625,-0.59173583984375,52.616786915815545,68.5849802643905,-61.16606960098537,0.0,,,,3,0,2,3
1788937869.2694218,3130775620.0,-9.0390625,2.5234375,2.07421875,-0.197265625,0.013671875,0.142578125,18.875,-19.4375,-29.8125,18.875,-19.4375,-29.8125,0.058182035173837035,-0.5820332677801516,0.22985533139816747,0.777829449563352,53.20341602055972,68.77914852342494,-150.7151106729027,0.51068115234375,0.5721435546875,0.24853515625,-0.59173583984375,52.616786915815545,68.5849802643905,-61.16606960098537,0.0,,,,3,0,3,3
1788937869.276237,3130779126.0,-9.078125,2.484375,2.07421875,-0.19921875,0.0078125,0.169921875,18.875,-19.4375,-29.8125,18.875,-19.4375,-29.8125,0.057880341521790564,-0.5820393963187762,0.22978987298637918,0.7778667118929176,53.222783181335174,68.76437548202519,-150.66539121685,0.51165771484375,0.57183837890625,0.24871826171875,-0.591064453125,52.64024053506402,68.51350239307496,-61.0043986064545,0.7603283055109714,,,,3,0,3,3
1788937869.274284,3130783356.0,-9.00390625,2.3671875,2.11328125,-0.19921875,0.0078125,0.169921875,18.875,-19.4375,-29.8125,18.875,-19.4375,-29.8125,0.057549179922431665,-0.5820322524019537,0.22965105913432404,0.7779376196666719,53.22373286283416,68.74907695923045,-150.62544669741663,0.51165771484375,0.57183837890625,0.24871826171875,-0.591064453125,52.64024053506402,68.51350239307496,-61.0043986064545,0.7424258002456442,,,,3,0,3,3
1788937869.276237,3130787262.0,-9.0390625,2.25390625,2.2265625,-0.189453125,0.015625,0.19140625,19.25,-19.9375,-29.8125,19.25,-19.9375,-29.8125,0.05722853492594052,-0.5819938213695515,0.2295504945729741,0.7780197022692934,53.22520829886047,68.72963649475338,-150.58925054787275,0.51165771484375,0.57183837890625,0.24871826171875,-0.591064453125,52.64024053506402,68.51350239307496,-61.0043986064545,0.7251332798716251,,,,3,0,3,3
1788937869.2874558,3130791168.0,-9.0,2.17578125,2.265625,-0.181640625,0.0078125,0.212890625,19.25,-19.9375,-29.8125,19.25,-19.9375,-29.8125,0.056880935739016245,-0.5819249880302401,0.2294626388495993,0.7781225898453515,53.22526941545784,68.70486323416999,-150.5534802353695,0.51275634765625,0.5716552734375,0.248779296875,-0.59027099609375,52.72747354319103,68.43315999138092,-60.79537879542906,0.697586267150884,,,,3,0,3,3
1788937869.2939024,3130794951.0,-9.04296875,2.21484375,2.3046875,-0.15234375,0.013671875,0.224609375,19.875,-19.4375,-29.625,19.875,-19.4375,-29.625,0.05653522779954629,-0.5818532931907807,0.22939924680188503,0.7782200837728518,53.23049845916007,68.67901386913165,-150.5148056460074,0.51275634765625,0.5716552734375,0.248779296875,-0.59027099609375,52.72747354319103,68.43315999138092,-60.79537879542906,0.6713573030451083,,,,3,0,3,3
1788937869.2963583,3130798557.0,-9.04296875,2.25390625,2.3046875,-0.107421875,0.02734375,0.244140625,19.875,-19.4375,-29.625,19.875,-19.4375,-29.625,0.05622206870061948,-0.5817880260268867,0.22942899516918655,0.778282794322487,53.256888890034325,68.65240648856435,-150.4655898331314,0.51385498046875,0.57159423828125,0.2486572265625,-0.58941650390625,52.86088304989286,68.33552770242022,-60.55040019370508,0.8366575064917651,,,,3,0,3,3
1788937869.290434,3130802710.0,-9.0390625,2.3671875,2.265625,-0.107421875,0.02734375,0.244140625,19.875,-19.4375,-29.625,19.875,-19.4375,-29.625,0.055876606158008456,-0.5817097220091748,0.2294899801121022,0.7783482210633095,53.29135786356424,68.62134726860022,-150.40838214105418,0.51385498046875,0.57159423828125,0.2486572265625,-0.58941650390625,52.86088304989286,68.33552770242022,-60.55040019370508,0.8102317332082829,,,,3,0,3,3
1788937869.2963583,3130806593.0,-9.08203125,2.40625,2.2265625,-0.072265625,0.0234375,0.2421875,19.5625,-18.4375,-29.25,19.5625,-18.4375,-29.25,0.05556545905165481,-0.5816533445879928,0.22953859732295617,0.7783982906128395,53.32428340975674,68.59512599689415,-150.35437578898586,0.51385498046875,0.57159423828125,0.2486572265625,-0.58941650390625,52.86088304989286,68.33552770242022,-60.55040019370508,0.7882624148100499,,,,3,0,3,3
1788937869.309231,3130810500.0,-9.078125,2.5234375,2.1484375,-0.046875,0.025390625,0.234375,19.5625,-18.4375,-29.25,19.5625,-18.4375,-29.25,0.055309533538361134,-0.5816282724421389,0.22963918950109863,0.7784055824832067,53.371700919259844,68.57364194370102,-150.29472191906785,0.5147705078125,0.57177734375,0.24822998046875,-0.588623046875,53.05907233345068,68.2308409230417,-60.291927470625076,0.8267432867965308,,,,3,0,3,3
1788937869.3140686,3130814182.0,-9.0390625,2.63671875,2.2265625,-0.0234375,0.0234375,0.21484375,19.0,-19.1875,-31.125,19.0,-19.1875,-31.125,0.055107855466055886,-0.5815305654700053,0.22976667017158733,0.7784552671594748,53.401467271973836,68.5465398536942,-150.25977870673867,0.5147705078125,0.57177734375,0.24822998046875,-0.588623046875,53.05907233345068,68.2308409230417,-60.291927470625076,0.8068753631945594,,,,3,0,3,3
1788937869.3170698,3130818135.0,-9.04296875,2.71484375,2.1484375,-0.0234375,0.0234375,0.21484375,19.0,-19.1875,-31.125,19.0,-19.1875,-31.125,0.05493608868680596,-0.5814670964783271,0.22997965400677908,0.778451925693412,53.45760558860061,68.52176551574833,-150.2080971396579,0.5147705078125,0.57177734375,0.24822998046875,-0.588623046875,53.05907233345068,68.2308409230417,-60.291927470625076,0.7911347704716151,,,,3,0,3,3
1788937869.320069,3130822242.0,-9.0390625,2.828125,2.1484375,-0.0078125,0.01171875,0.189453125,19.0,-19.1875,-31.125,19.0,-19.1875,-31.125,0.05469137174875084,-0.5813319009378333,0.2303714755450606,0.7784542748700379,53.54809002794225,68.47839010805068,-150.13173470592133,0.51544189453125,0.572021484375,0.247802734375,-0.58795166015625,53.24721931766426,68.14020960968497,-60.05961863626323,1.055956106631209,,,,3,0,3,3
1788937869.3255835,3130826401.0,-8.9609375,2.90625,2.1484375,0.01171875,0.00390625,0.158203125,21.6875,-19.0,-34.75,21.6875,-19.0,-34.75,0.05441225502837903,-0.5812613958143115,0.23041421652280397,0.7785138310029613,53.57196390317817,68.45271514594107,-150.08896409911128,0.51544189453125,0.572021484375,0.247802734375,-0.58795166015625,53.24721931766426,68.14020960968497,-60.05961863626323,1.0368010721678138,,,,3,0,2,3
1788937869.3294144,3130830507.0,-8.9609375,2.9453125,2.11328125,0.005859375,-0.0078125,0.12890625,21.6875,-19.0,-34.75,21.6875,-19.0,-34.75,0.054165336310817054,-0.5811978528964038,0.23040914922653272,0.7785799869529473,53.582146921219426,68.43144999406253,-150.05839326491122,0.515869140625,0.572265625,0.247314453125,-0.5875244140625,53.39656178320512,68.06432595078708,-59.90005388006076,1.2032140877797108,,,,3,0,2,3
1788937869.3346748,3130833890.0,-8.89453125,3.01953125,2.11328125,0.0078125,-0.01953125,0.103515625,23.1875,-17.75,-35.375,23.1875,-17.75,-35.375,0.054005614175473594,-0.5811412240258127,0.2303814016226872,0.7786415614142852,53.57880302279538,68.41692657836163,-150.04651764421104,0.515869140625,0.572265625,0.247314453125,-0.5875244140625,53.39656178320512,68.06432595078708,-59.90005388006076,1.1932093291100565,,,,3,0,2,3
1788937869.335673,3130838243.0,-8.890625,3.05859375,2.07421875,0.0078125,-0.01953125,0.103515625,23.1875,-17.75,-35.375,23.1875,-17.75,-35.375,0.05378816656639857,-0.5810758774747191,0.23034566942430632,0.7787159497094424,53.57768510250232,68.39834467041516,-150.02704041793882,0.515869140625,0.572265625,0.247314453125,-0.5875244140625,53.39656178320512,68.06432595078708,-59.90005388006076,1.180366271440949,,,,3,0,2,3
1788937869.3417249,3130842350.0,-8.81640625,3.13671875,2.03515625,0.00390625,-0.033203125,0.0703125,23.1875,-17.75,-35.375,23.1875,-17.75,-35.375,0.05361097287894341,-0.58100831485949,0.23027587549797646,0.778799218550423,53.56317535987833,68.38316336330055,-150.02134141614044,0.51617431640625,0.57244873046875,0.24700927734375,-0.5872802734375,53.50389471218151,68.02931278443575,-59.81216292215601,0.5405282403024259,,,,3,0,2,3
1788937869.3417249,3130845932.0,-8.7734375,3.09765625,2.03515625,0.0078125,-0.05078125,0.046875,22.4375,-19.25,-36.375,22.4375,-19.25,-36.375,0.05346753965060459,-0.5809262945848063,0.23021662959707645,0.7788877749205212,53.54396010934498,68.36804198842323,-150.02407953979838,0.51617431640625,0.57244873046875,0.24700927734375,-0.5872802734375,53.50389471218151,68.02931278443575,-59.81216292215601,0.5206662024317739,,,,3,0,2,3
1788937869.3417249,3130849639.0,-8.734375,3.13671875,1.99609375,0.00390625,-0.06640625,0.0234375,22.4375,-19.25,-36.375,22.4375,-19.25,-36.375,0.053331324721086835,-0.5808358099718286,0.23013975659108615,0.7789873067605526,53.5175261881936,68.35308759474992,-150.0331526133891,0.51629638671875,0.5723876953125,0.2467041015625,-0.5872802734375,53.48925754717567,67.97936446780804,-59.81253835461161,1.2348281897566236,,,,3,0,2,3
1788937869.355708,3130853898.0,-8.73828125,3.05859375,1.95703125,0.013671875,-0.08203125,0.0078125,22.8125,-20.3125,-34.0625,22.8125,-20.3125,-34.0625,0.05321578398651955,-0.580717328387396,0.23027864829137362,0.7790424949811167,53.53499654482914,68.32842161611687,-150.0186337669604,0.51629638671875,0.5723876953125,0.2467041015625,-0.5872802734375,53.48925754717567,67.97936446780804,-59.81253835461161,1.2238796228694997,,,,3,0,2,3
1788937869.3577044,3130857075.0,-8.73828125,3.05859375,2.03515625,0.013671875,-0.08203125,0.0078125,22.8125,-20.3125,-34.0625,22.8125,-20.3125,-34.0625,0.05311327384686024,-0.5805889439635045,0.2303755081632973,0.7791165404014431,53.53821965281547,68.30500918336934,-150.01586931247815,0.51629638671875,0.5723876953125,0.2467041015625,-0.5872802734375,53.48925754717567,67.97936446780804,-59.81253835461161,1.214350976366905,,,,3,0,2,3
1788937869.3577044,3130861957.0,-8.6953125,3.13671875,2.265625,0.021484375,-0.09375,0.0,22.8125,-20.3125,-34.0625,22.8125,-20.3125,-34.0625,0.053073648196011826,-0.5802808569614791,0.23045804830956657,0.779324324579031,53.486544019772246,68.26653796472804,-150.07270031641124,0.51641845703125,0.572265625,0.2464599609375,-0.58746337890625,53.44451103139425,67.96015833266439,-59.88912646280968,0.6322058207118438,,,,3,0,2,3
1788937869.3642497,3130864964.0,-8.69921875,3.171875,2.2265625,0.00390625,-0.083984375,-0.001953125,19.25,-19.9375,-29.8125,19.25,-19.9375,-29.8125,0.05306582126005544,-0.580128852711292,0.2305877493090593,0.779399655333808,53.4816826083109,68.24498456999348,-150.08869741736078,0.51641845703125,0.572265625,0.2464599609375,-0.58746337890625,53.44451103139425,67.96015833266439,-59.88912646280968,0.621301559847263,,,,3,0,2,3
1788937869.3603146,3130869646.0,-8.73828125,3.13671875,2.1484375,-0.025390625,-0.08203125,0.005859375,19.25,-19.9375,-29.8125,19.25,-19.9375,-29.8125,0.05300486300167003,-0.579918678804249,0.2307529836616467,0.7795113026783874,53.477039397780096,68.21274165087344,-150.10342412256963,0.5164794921875,0.572021484375,0.2462158203125,-0.58770751953125,53.34518890331535,67.92512160144054,-59.98842626411366,1.0096468820386044,,,,3,0,2,3
1788937869.362282,3130873000.0,-8.73828125,3.13671875,2.07421875,-0.025390625,-0.08203125,0.005859375,19.25,-19.9375,-29.8125,19.25,-19.9375,-29.8125,0.052962496449132646,-0.5797840396600072,0.23086986859356654,0.7795797233772744,53.477155133734506,68.19148898338487,-150.11044429163186,0.5164794921875,0.572021484375,0.2462158203125,-0.58770751953125,53.34518890331535,67.92512160144054,-59.98842626411366,1.0021754108405332,,,,3,0,2,3
1788937869.3734744,3130877582.0,-8.7734375,3.09765625,1.99609375,-0.05859375,-0.0625,0.005859375,19.25,-19.375,-29.4375,19.25,-19.375,-29.4375,0.05285097746873258,-0.579666510001438,0.2309626556728716,0.7796472042198874,53.483142398639856,68.16887525733208,-150.10378802671488,0.5164794921875,0.572021484375,0.2462158203125,-0.58770751953125,53.34518890331535,67.92512160144054,-59.98842626411366,0.9922562759909794,,,,3,0,3,3
1788937869.3734744,3130880712.0,-8.77734375,3.01953125,2.03515625,-0.091796875,-0.052734375,0.017578125,19.25,-19.375,-29.4375,19.25,-19.375,-29.4375,0.05273572826675154,-0.5795932710646313,0.23099960921424206,0.7796985081707183,53.4867553577196,68.15284651121861,-150.09422017787165,0.51678466796875,0.57171630859375,0.2462158203125,-0.5877685546875,53.26022773006979,67.9039946174185,-60.05092836416081,0.7029891644530852,,,,3,0,3,3
1788937869.3734744,3130884595.0,-8.7734375,2.90625,2.07421875,-0.091796875,-0.03515625,0.03125,19.3125,-20.1875,-31.5,19.3125,-20.1875,-31.5,0.052587565426866545,-0.5795174234101075,0.23106602436256543,0.7797452124327944,53.50051058091502,68.13351483491803,-150.07435239189786,0.51678466796875,0.57171630859375,0.2462158203125,-0.5877685546875,53.26022773006979,67.9039946174185,-60.05092836416081,0.6884346753099425,,,,3,0,3,3
1788937869.3877258,3130889178.0,-8.77734375,2.90625,2.11328125,-0.091796875,-0.013671875,0.056640625,19.3125,-20.1875,-31.5,19.3125,-20.1875,-31.5,0.0523577502389264,-0.5794320060797359,0.23118738074333103,0.7797881836148642,53.534188838386186,68.10631612433745,-150.03262738188093,0.51715087890625,0.5714111328125,0.246337890625,-0.587646484375,53.19161420777174,67.87481989230204,-60.05287747838875,1.0896440292558898,,,,3,0,3,3
1788937869.3895113,3130892554.0,-8.81640625,2.90625,2.07421875,-0.091796875,-0.013671875,0.056640625,19.3125,-20.1875,-31.5,19.3125,-20.1875,-31.5,0.05219346643394926,-0.5793914733526404,0.23126842996227245,0.7798052808045419,53.56186196353734,68.08928173687569,-149.99862444400233,0.51715087890625,0.5714111328125,0.246337890625,-0.587646484375,53.19161420777174,67.87481989230204,-60.05287747838875,1.080902951823563,,,,3,0,3,3
1788937869.3806572,3130896437.0,-8.8515625,2.90625,2.11328125,-0.078125,0.00390625,0.0859375,19.25,-18.9375,-29.6875,19.25,-18.9375,-29.6875,0.05196375464875056,-0.5793427336736767,0.23142299009809017,0.7798109801717177,53.61248422427113,68.06478978288477,-149.94265535718225,0.51715087890625,0.5714111328125,0.246337890625,-0.587646484375,53.19161420777174,67.87481989230204,-60.05287747838875,1.0695638918627164,,,,3,0,3,3
1788937869.3895113,3130900343.0,-8.8515625,2.90625,2.11328125,-0.080078125,0.03125,0.111328125,19.25,-18.9375,-29.6875,19.25,-18.9375,-29.6875,0.05168191869938934,-0.5793246299506304,0.23160666460152557,0.7797886286194942,53.68323599601788,68.03940518732026,-149.86465352270693,0.51763916015625,0.57135009765625,0.246337890625,-0.5872802734375,53.23610421073043,67.8368739582784,-59.95665823520291,1.0533975510291524,,,,3,0,3,3
1788937869.4042327,3130905003.0,-8.8515625,2.90625,2.11328125,-0.072265625,0.060546875,0.130859375,19.125,-20.0625,-30.5,19.125,-20.0625,-30.5,0.05132238560938629,-0.5793477289192919,0.23186835754676932,0.7797174401666181,53.791278474425845,68.0109042161133,-149.749514866938,0.51763916015625,0.57135009765625,0.246337890625,-0.5872802734375,53.23610421073043,67.8368739582784,-59.95665823520291,1.0392251559051622,,,,3,0,3,3
1788937869.4052408,3130908956.0,-8.890625,2.8671875,2.07421875,-0.072265625,0.060546875,0.130859375,19.125,-20.0625,-30.5,19.125,-20.0625,-30.5,0.051035754741083794,-0.5793922771852175,0.23207457386839977,0.7796417979046127,53.88307727362062,67.99101152152703,-149.6517413003799,0.51763916015625,0.57135009765625,0.246337890625,-0.5872802734375,53.23610421073043,67.8368739582784,-59.95665823520291,1.0303952056219976,,,,3,0,3,3
1788937869.4075923,3130912085.0,-8.890625,2.7890625,2.07421875,-0.05078125,0.087890625,0.146484375,19.125,-20.0625,-30.5,19.125,-20.0625,-30.5,0.05082690924626666,-0.5794625850167722,0.23226646493645436,0.7795460391330808,53.969289062113994,67.97897054038967,-149.56458783237613,0.5181884765625,0.57147216796875,0.246337890625,-0.586669921875,53.3657337510935,67.7938430112693,-59.76495241964629,1.1070155375451052,,,,3,0,3,3
1788937869.4155867,3130916845.0,-8.93359375,2.75390625,2.07421875,-0.033203125,0.111328125,0.1640625,18.8125,-19.5625,-30.5,18.8125,-19.5625,-30.5,0.05054114298757901,-0.5796348059116155,0.23255668418614342,0.7793500325794946,54.112590310078986,67.96947867701377,-149.4220468678576,0.5181884765625,0.57147216796875,0.246337890625,-0.586669921875,53.3657337510935,67.7938430112693,-59.76495241964629,1.1038395620986472,,,,3,0,3,3
1788937869.4211752,3130920351.0,-8.93359375,2.7890625,2.11328125,-0.0078125,0.14453125,0.17578125,18.8125,-19.5625,-30.5,18.8125,-19.5625,-30.5,0.050334541902881814,-0.5797727506625754,0.23284275345203817,0.7791753612925986,54.23792530393619,67.96110664295169,-149.30375244079235,0.51861572265625,0.57196044921875,0.24627685546875,-0.58587646484375,53.62575922855346,67.76542827780911,-59.47612777819669,0.85773780034747,,,,3,0,3,3
1788937869.4191787,3130924134.0,-8.890625,2.90625,2.265625,0.00390625,0.16796875,0.201171875,22.5625,-19.125,-35.3125,22.5625,-19.125,-35.3125,0.04996231692117689,-0.5799178546092333,0.2329385422560266,0.7790626960167772,54.33649534414837,67.95067725374935,-149.18229565038618,0.51861572265625,0.57196044921875,0.24627685546875,-0.58587646484375,53.62575922855346,67.76542827780911,-59.47612777819669,0.8422571544310495,,,,3,0,2,3
1788937869.4211752,3130927710.0,-8.89453125,2.98046875,2.3046875,0.00390625,0.16796875,0.201171875,22.5625,-19.125,-35.3125,22.5625,-19.125,-35.3125,0.049600174886135225,-0.580043320850935,0.23304036572089054,0.7789619737395129,54.43051399731908,67.9384755445925,-149.06682146892638,0.51861572265625,0.57196044921875,0.24627685546875,-0.58587646484375,53.62575922855346,67.76542827780911,-59.47612777819669,0.8291728328659278,,,,3,0,2,3
1788937869.4211752,3130932393.0,-8.89453125,2.9453125,2.3046875,-0.01171875,0.1953125,0.212890625,22.5625,-19.125,-35.3125,22.5625,-19.125,-35.3125,0.04907723137430136,-0.5802562821983919,0.2331597145412912,0.7788007574758496,54.567367932097085,67.92515691635694,-148.89647674834984,0.51898193359375,0.57269287109375,0.2462158203125,-0.5848388671875,53.98059357158579,67.7331676881971,-59.079707480220144,1.0233580625582028,,,,3,0,2,3
1788937869.4211752,3130935976.0,-8.96484375,2.98046875,2.265625,-0.041015625,0.216796875,0.2265625,21.875,-18.6875,-35.75,21.875,-18.6875,-35.75,0.048614027227097144,-0.5804600127004399,0.23321624139284286,0.7786610525531398,54.68041056140639,67.91671839972071,-148.74948677314188,0.51898193359375,0.57269287109375,0.2462158203125,-0.5848388671875,53.98059357158579,67.7331676881971,-59.079707480220144,1.0085475089397373,,,,3,0,2,3
1788937869.4370017,3130939482.0,-8.96484375,2.98046875,2.265625,-0.068359375,0.232421875,0.23046875,21.875,-18.6875,-35.75,21.875,-18.6875,-35.75,0.04812215942055638,-0.5806809249040196,0.23323961804035215,0.7785198788738189,54.792725623599786,67.90954209927764,-148.59796315720314,0.51947021484375,0.57354736328125,0.2462158203125,-0.58355712890625,54.40441046359719,67.69836282131675,-58.60001374678343,1.0974106050993497,,,,3,0,2,3
1788937869.435027,3130943265.0,-8.9609375,2.9453125,2.2265625,-0.09765625,0.232421875,0.228515625,23.1875,-20.125,-35.6875,23.1875,-20.125,-35.6875,0.04757432080252354,-0.5809159214230721,0.23322191824822436,0.7783835257030947,54.9045092793153,67.90196219968402,-148.4388078146534,0.51947021484375,0.57354736328125,0.2462158203125,-0.58355712890625,54.40441046359719,67.69836282131675,-58.60001374678343,1.077299518709581,,,,3,0,2,3
1788937869.4370017,3130947242.0,-9.04296875,2.90625,2.1875,-0.09765625,0.232421875,0.228515625,23.1875,-20.125,-35.6875,23.1875,-20.125,-35.6875,0.047014600565862444,-0.5811843189710325,0.2331879142400024,0.7782273519789745,55.021991958339186,67.89770196484923,-148.27144678118538,0.51947021484375,0.57354736328125,0.2462158203125,-0.58355712890625,54.40441046359719,67.69836282131675,-58.60001374678343,1.0620234584198018,,,,3,0,2,3
1788937869.449746,3130952125.0,-9.08203125,2.9453125,2.1484375,-0.107421875,0.2265625,0.2265625,23.1875,-20.125,-35.6875,23.1875,-20.125,-35.6875,0.0463147908689504,-0.5815191658831864,0.23311689365712573,0.7780404319499988,55.16189868621578,67.89325986745581,-148.06674506591017,0.52008056640625,0.57427978515625,0.2464599609375,-0.58221435546875,54.801648901241094,67.67830059647602,-58.1236803706819,0.8779868925811094,,,,3,0,2,3
1788937869.4529805,3130955307.0,-9.12109375,2.98046875,2.07421875,-0.095703125,0.205078125,0.232421875,22.1875,-19.3125,-33.6875,22.1875,-19.3125,-33.6875,0.04586951660971128,-0.5817322371923577,0.23308159678339688,0.7779180939520998,55.253321018662064,67.88996855091419,-147.93495080442386,0.52008056640625,0.57427978515625,0.2464599609375,-0.58221435546875,54.801648901241094,67.67830059647602,-58.1236803706819,0.8612974555365813,,,,3,0,2,3
1788937869.4529805,3130959790.0,-9.15625,3.05859375,2.1484375,-0.078125,0.171875,0.22265625,22.1875,-19.3125,-33.6875,22.1875,-19.3125,-33.6875,0.04527641384401064,-0.5819353054570661,0.2330620614048102,0.7778068025838791,55.361229132354005,67.8759923996647,-147.7759709595769,0.520751953125,0.574951171875,0.24664306640625,-0.58087158203125,55.18047793198726,67.642028067738,-57.65511371759195,0.9051821916626149,,,,3,0,2,3
1788937869.4510274,3130963043.0,-9.16015625,3.13671875,2.1484375,-0.078125,0.171875,0.22265625,22.1875,-19.3125,-33.6875,22.1875,-19.3125,-33.6875,0.04482229884910508,-0.5820737530203564,0.233057746275061,0.7777307982019666,55.442010451419634,67.86303867143596,-147.65707468575857,0.520751953125,0.574951171875,0.24664306640625,-0.58087158203125,55.18047793198726,67.642028067738,-57.65511371759195,0.8826693300770015,,,,3,0,2,3
1788937869.4617703,3130967626.0,-9.234375,3.171875,2.2265625,-0.046875,0.142578125,0.212890625,18.75,-19.8125,-29.1875,18.75,-19.8125,-29.1875,0.04430205446948156,-0.5821557537697503,0.23348699759715222,0.7775704651513099,55.61851015858355,67.8229943305512,-147.4745087869683,0.520751953125,0.574951171875,0.24664306640625,-0.58087158203125,55.18047793198726,67.642028067738,-57.65511371759195,0.8560936550239998,,,,3,0,3,3
1788937869.4687364,3130970856.0,-9.23828125,3.328125,2.2265625,-0.04296875,0.10546875,0.2109375,18.75,-19.8125,-29.1875,18.75,-19.8125,-29.1875,0.04393177016800905,-0.5821654669070114,0.23378863092756508,0.7774935657353453,55.730502587376456,67.78949695464352,-147.3580727321842,0.5213623046875,0.57550048828125,0.24652099609375,-0.579833984375,55.4869533462486,67.58451221426135,-57.293597994502214,0.8651978536853236,,,,3,0,3,3
1788937869.4556413,3130975415.0,-9.31640625,3.40234375,2.265625,-0.064453125,0.07421875,0.1875,18.9375,-20.875,-29.9375,18.9375,-20.875,-29.9375,0.043444787661923175,-0.5821405350397246,0.23414292342718332,0.7774329805826645,55.85768703863657,67.74312786618383,-147.22156555154396,0.5213623046875,0.57550048828125,0.24652099609375,-0.579833984375,55.4869533462486,67.58451221426135,-57.293597994502214,0.8357414906767093,,,,3,0,3,3
1788937869.4643714,3130979021.0,-9.34765625,3.40234375,2.2265625,-0.08203125,0.046875,0.162109375,18.9375,-20.875,-29.9375,18.9375,-20.875,-29.9375,0.043090798541832065,-0.5821029532661776,0.23436935949416193,0.7774125920064053,55.93752495075977,67.70859900933131,-147.13236418305152,0.52197265625,0.5758056640625,0.24639892578125,-0.57904052734375,55.69081860765772,67.52653070361553,-57.03592246361331,0.8028481924615949,,,,3,0,3,3
1788937869.466554,3130983375.0,-9.34375,3.44140625,2.2265625,-0.08203125,0.046875,0.162109375,18.9375,-20.875,-29.9375,18.9375,-20.875,-29.9375,0.042658401768688695,-0.5820564105853152,0.23464237082565148,0.7773889332042215,56.033735593829604,67.66644925021899,-147.02441484846827,0.52197265625,0.5758056640625,0.24639892578125,-0.57904052734375,55.69081860765772,67.52653070361553,-57.03592246361331,0.7739377876859229,,,,3,0,3,3
1788937869.4843922,3130986481.0,-9.34765625,3.48046875,2.3046875,-0.115234375,0.015625,0.13671875,19.25,-18.9375,-29.375,19.25,-18.9375,-29.375,0.042324398693877274,-0.5819592767298145,0.2347465929867926,0.7774484436825416,56.06709514795907,67.63184424650474,-146.97308009927795,0.52197265625,0.5758056640625,0.24639892578125,-0.57904052734375,55.69081860765772,67.52653070361553,-57.03592246361331,0.751780954749205,,,,3,0,3,3
1788937869.4879212,3130991064.0,-9.31640625,3.44140625,2.37890625,-0.1328125,-0.0078125,0.10546875,19.25,-18.9375,-29.375,19.25,-18.9375,-29.375,0.041891403078115855,-0.5817700533514848,0.2347936389090596,0.7775992943022771,56.0733767879734,67.58400798735634,-146.9361927971662,0.522705078125,0.57568359375,0.24639892578125,-0.5784912109375,55.7392373073106,67.46472281059631,-56.903585710082204,0.8694128205066515,,,,3,0,3,3
1788937869.4826849,3130994846.0,-9.23828125,3.36328125,2.33984375,-0.1640625,-0.029296875,0.07421875,19.4375,-18.25,-28.25,19.4375,-18.25,-28.25,0.04155722320542731,-0.5815941206615988,0.23473511806443442,0.7777664818945286,56.048313155207104,67.54783515910773,-146.92961167619788,0.522705078125,0.57568359375,0.24639892578125,-0.5784912109375,55.7392373073106,67.46472281059631,-56.903585710082204,0.8474378801195293,,,,3,0,3,3
1788937869.4848983,3130998800.0,-9.23828125,3.2890625,2.37890625,-0.1640625,-0.029296875,0.07421875,19.4375,-18.25,-28.25,19.4375,-18.25,-28.25,0.04123377907467733,-0.5814018082315662,0.23464072852073858,0.777955937934497,56.009676793860905,67.51208459406004,-146.93446770737816,0.522705078125,0.57568359375,0.24639892578125,-0.5784912109375,55.7392373073106,67.46472281059631,-56.903585710082204,0.8279026710288472,,,,3,0,3,3
1788937869.5001736,3131002506.0,-9.16015625,3.2890625,2.45703125,-0.17578125,-0.048828125,0.05078125,19.4375,-18.25,-28.25,19.4375,-18.25,-28.25,0.040964004757066644,-0.581205528079681,0.23448768653951096,0.7781629709162665,55.95103958369773,67.48156418576289,-146.95869364368352,0.5234375,0.5753173828125,0.24658203125,-0.578125,55.69354480774055,67.421041954504,-56.85560233030048,0.7630965340600905,,,,3,0,3,3
1788937869.5001736,3131006489.0,-9.16015625,3.2109375,2.41796875,-0.1953125,-0.05859375,0.037109375,18.9375,-19.9375,-29.8125,18.9375,-19.9375,-29.8125,0.040709194223557725,-0.5809928310643823,0.2343633692610487,0.7783725990205925,55.89366986657184,67.44911272495928,-146.98541290167782,0.5234375,0.5753173828125,0.24658203125,-0.578125,55.69354480774055,67.421041954504,-56.85560233030048,0.7452724709015301,,,,3,0,3,3
1788937869.507664,3131010195.0,-9.1171875,3.13671875,2.37890625,-0.208984375,-0.0625,0.033203125,18.9375,-19.9375,-29.8125,18.9375,-19.9375,-29.8125,0.040482889301690944,-0.5807938492786157,0.23422740517725726,0.778573800598148,55.8343282190828,67.42027578457707,-147.01537947776748,0.524169921875,0.57470703125,0.24688720703125,-0.57794189453125,55.552834354586395,67.38599231620913,-56.88965716791369,0.7394527418457365,,,,3,0,3,3
1788937869.5140364,3131014178.0,-9.12109375,3.01953125,2.41796875,-0.22265625,-0.068359375,0.03515625,19.3125,-19.875,-29.5,19.3125,-19.875,-29.5,0.040265588750515446,-0.580563871904957,0.23402062631544998,0.7788187333778148,55.749896540573495,67.39161919136615,-147.0652184044363,0.524169921875,0.57470703125,0.24688720703125,-0.57794189453125,55.552834354586395,67.38599231620913,-56.88965716791369,0.72180371185253,,,,3,0,3,3
1788937869.5140364,3131018531.0,-9.078125,2.9453125,2.49609375,-0.22265625,-0.068359375,0.03515625,19.3125,-19.875,-29.5,19.3125,-19.875,-29.5,0.04003685948675322,-0.5803127728067367,0.23374202106541006,0.7791012791595534,55.64473322872071,67.3629378620088,-147.12877203961526,0.524169921875,0.57470703125,0.24688720703125,-0.57794189453125,55.552834354586395,67.38599231620913,-56.88965716791369,0.7066606155884557,,,,3,0,3,3
1788937869.5160456,3131022537.0,-9.12109375,2.828125,2.49609375,-0.201171875,-0.064453125,0.0546875,19.3125,-19.875,-29.5,19.3125,-19.875,-29.5,0.039860712092185245,-0.5800941484515725,0.23350267311204878,0.7793448557687903,55.551847562086664,67.33920714833796,-147.18759029746863,0.52496337890625,0.57403564453125,0.24725341796875,-0.5777587890625,55.39741636664264,67.35472464662868,-56.933702145130916,0.39177882076956955,,,,3,0,3,3
1788937869.5160456,3131026020.0,-9.078125,2.75390625,2.45703125,-0.1875,-0.05859375,0.07421875,22.3125,-20.0,-35.0625,22.3125,-20.0,-35.0625,0.03963778292035343,-0.5799765133061222,0.2331911505780619,0.7795370276455841,55.47199654076674,67.32593785891497,-147.22292613904844,0.52496337890625,0.57403564453125,0.24725341796875,-0.5777587890625,55.39741636664264,67.35472464662868,-56.933702145130916,0.3584087968511556,,,,3,0,2,3
1788937869.5160456,3131029326.0,-9.1171875,2.75390625,2.49609375,-0.169921875,-0.052734375,0.09765625,22.3125,-20.0,-35.0625,22.3125,-20.0,-35.0625,0.03941085034053832,-0.579859906395056,0.23294284006374283,0.7797095017338125,55.40767700021429,67.3100118056031,-147.2478293488942,0.52581787109375,0.573486328125,0.2474365234375,-0.57745361328125,55.294415528157025,67.29977836375241,-56.92749358723406,0.3447360262330626,,,,3,0,2,3
1788937869.5319557,3131034085.0,-9.1171875,2.75390625,2.5703125,-0.142578125,-0.03515625,0.1171875,22.875,-20.125,-35.75,22.875,-20.125,-35.75,0.03906829610838191,-0.579705148318023,0.23266931547499262,0.7799234570707341,55.33966794980273,67.28414628760292,-147.26495221462454,0.52581787109375,0.573486328125,0.2474365234375,-0.57745361328125,55.294415528157025,67.29977836375241,-56.92749358723406,0.2833747571112929,,,,3,0,2,3
1788937869.5339305,3131038062.0,-9.15625,2.7890625,2.609375,-0.142578125,-0.03515625,0.1171875,22.875,-20.125,-35.75,22.875,-20.125,-35.75,0.038779438106756305,-0.5795716697035108,0.23244420013438602,0.7801041780948839,55.28298722860565,67.26181159731229,-147.27921148441408,0.52581787109375,0.573486328125,0.2474365234375,-0.57745361328125,55.294415528157025,67.29977836375241,-56.92749358723406,0.23071885321954239,,,,3,0,2,3
1788937869.5339305,3131041968.0,-9.16015625,2.8671875,2.5703125,-0.119140625,-0.015625,0.1328125,22.875,-20.125,-35.75,22.875,-20.125,-35.75,0.038484156248067815,-0.5794605924910944,0.23227811579167698,0.7802507727596383,55.24633066844199,67.23907304770792,-147.27789697552504,0.52655029296875,0.57318115234375,0.2474365234375,-0.5770263671875,55.27077886596541,67.228652305221,-56.84929684458243,1.0273392289556602,,,,3,0,2,3
1788937869.540936,3131045151.0,-9.12109375,2.90625,2.49609375,-0.109375,0.0078125,0.14453125,22.25,-21.0625,-35.875,22.25,-21.0625,-35.875,0.038238060779509565,-0.5793825321242981,0.2321795258395512,0.7803501777778873,55.22867780629435,67.22005174028652,-147.2672634613793,0.52655029296875,0.57318115234375,0.2474365234375,-0.5770263671875,55.27077886596541,67.228652305221,-56.84929684458243,1.0153750968152646,,,,3,0,2,3
1788937869.5477068,3131049534.0,-9.15625,2.9453125,2.45703125,-0.099609375,0.021484375,0.14453125,22.25,-21.0625,-35.875,22.25,-21.0625,-35.875,0.037905269892624514,-0.5793019300692052,0.23205661157969404,0.7804628071565052,55.213398079196985,67.1965118505874,-147.24508186082454,0.5272216796875,0.5731201171875,0.24737548828125,-0.57647705078125,55.33459291978559,67.16475947958764,-56.709026435495275,1.197694326684045,,,,3,0,2,3
1788937869.5457537,3131053864.0,-9.15625,2.98046875,2.41796875,-0.099609375,0.021484375,0.14453125,22.25,-21.0625,-35.875,22.25,-21.0625,-35.875,0.03757491275048625,-0.5792249272968987,0.2319319353049194,0.7805729862834163,55.198369905541746,67.1735715772519,-147.2226816102705,0.5272216796875,0.5731201171875,0.24737548828125,-0.57647705078125,55.33459291978559,67.16475947958764,-56.709026435495275,1.1833181077459554,,,,3,0,2,3
1788937869.5477068,3131056793.0,-9.1953125,3.05859375,2.33984375,-0.080078125,0.02734375,0.13671875,22.625,-19.1875,-32.9375,22.625,-19.1875,-32.9375,0.03736231831901785,-0.5792024543279565,0.23184375464288076,0.7806260612504502,55.193510282859854,67.16193544692453,-147.2026603232688,0.5272216796875,0.5731201171875,0.24737548828125,-0.57647705078125,55.33459291978559,67.16475947958764,-56.709026435495275,1.1744879081927413,,,,3,0,2,3
1788937869.5477068,3131061676.0,-9.1953125,3.05859375,2.33984375,-0.060546875,0.02734375,0.140625,22.625,-19.1875,-32.9375,22.625,-19.1875,-32.9375,0.03702879331033275,-0.579161488511224,0.23173907577857245,0.7807034260516199,55.1923053412821,67.14175699915802,-147.16774526252516,0.52783203125,0.57318115234375,0.247314453125,-0.575927734375,55.4369357421863,67.1172954015351,-56.55888068293726,0.8771900644160568,,,,3,0,2,3
1788937869.5604334,3131065459.0,-9.234375,3.13671875,2.33984375,-0.04296875,0.017578125,0.1328125,20.125,-21.0,-30.5,20.125,-21.0,-30.5,0.03681011296286399,-0.579081367300169,0.2319956914988961,0.7806969865161366,55.25387828155395,67.1100626842872,-147.11063654077557,0.52783203125,0.57318115234375,0.247314453125,-0.575927734375,55.4369357421863,67.1172954015351,-56.55888068293726,0.8630674504197349,,,,3,0,2,3
1788937869.5674646,3131068865.0,-9.234375,3.2109375,2.3046875,-0.033203125,0.01171875,0.123046875,20.125,-21.0,-30.5,20.125,-21.0,-30.5,0.036621102844613306,-0.5790129710711788,0.23223118012604257,0.7806865908513069,55.31036497435904,67.08219650299567,-147.05918288112179,0.5283203125,0.57330322265625,0.2470703125,-0.575439453125,55.54259202443088,67.05317926175245,-56.41292045460811,1.0771014460243449,,,,3,0,2,3
1788937869.5674646,3131073218.0,-9.2734375,3.328125,2.3046875,-0.033203125,0.01171875,0.123046875,20.125,-21.0,-30.5,20.125,-21.0,-30.5,0.0363556431400057,-0.5789258018005106,0.23253320316941764,0.7806737427666458,55.38505324281172,67.04510052021027,-146.98906440659417,0.5283203125,0.57330322265625,0.2470703125,-0.575439453125,55.54259202443088,67.05317926175245,-56.41292045460811,1.0632279459638216,,,,3,0,2,3
1788937869.5747607,3131077301.0,-9.27734375,3.40234375,2.2265625,-0.033203125,-0.009765625,0.115234375,18.625,-19.4375,-29.8125,18.625,-19.4375,-29.8125,0.03610644260748339,-0.5788277395378346,0.23280092446760464,0.7806782322511508,55.44736144099626,67.00921144212234,-146.929759666229,0.5283203125,0.57330322265625,0.2470703125,-0.575439453125,55.54259202443088,67.05317926175245,-56.41292045460811,1.0522043364037974,,,,3,0,3,3
1788937869.5776277,3131081007.0,-9.3125,3.44140625,2.265625,-0.0390625,-0.02734375,0.103515625,18.625,-19.4375,-29.8125,18.625,-19.4375,-29.8125,0.0358940610857551,-0.5787083559289493,0.23302358761685027,0.7807101016196449,55.49030143341908,66.97514169595819,-146.88905792985628,0.52874755859375,0.5733642578125,0.246826171875,-0.57513427734375,55.61217378222111,67.005205338983,-56.33164157418244,0.6966546815325566,,,,3,0,3,3
1788937869.5795808,3131084790.0,-9.2734375,3.51953125,2.265625,-0.044921875,-0.052734375,0.08984375,18.5625,-20.0,-30.25,18.5625,-20.0,-30.25,0.03569761641066763,-0.5785542100600131,0.23322526104207797,0.7807731321045094,55.518251739165656,66.93929218534943,-146.8629940334217,0.52874755859375,0.5733642578125,0.246826171875,-0.57513427734375,55.61217378222111,67.005205338983,-56.33164157418244,0.6863290534796723,,,,3,0,3,3
1788937869.5792296,3131088643.0,-9.27734375,3.59375,2.33984375,-0.044921875,-0.052734375,0.08984375,18.5625,-20.0,-30.25,18.5625,-20.0,-30.25,0.0354882011636612,-0.5783795892444449,0.2334293153325159,0.7808510697098312,55.54295048296371,66.90045528925127,-146.8394121662068,0.52874755859375,0.5733642578125,0.246826171875,-0.57513427734375,55.61217378222111,67.005205338983,-56.33164157418244,0.6776631823713569,,,,3,0,3,3
1788937869.5882573,3131092750.0,-9.34375,3.6328125,2.265625,-0.05859375,-0.072265625,0.08203125,18.5625,-20.0,-30.25,18.5625,-20.0,-30.25,0.035271061103877475,-0.578189626320949,0.23361335792166232,0.7809465457148864,55.560007307963424,66.86037830928996,-146.8211866804698,0.52923583984375,0.57318115234375,0.24658203125,-0.574951171875,55.593314064072466,66.94106362178678,-56.31089252740946,0.8973799145430855,,,,3,0,3,3
1788937869.5953805,3131096332.0,-9.3125,3.6328125,2.2265625,-0.087890625,-0.08984375,0.076171875,18.9375,-22.375,-30.4375,18.9375,-22.375,-30.4375,0.03509254770480809,-0.578016236914671,0.23372613912596354,0.7810491884944631,55.56097578396089,66.82720952066377,-146.8160202743429,0.52923583984375,0.57318115234375,0.24658203125,-0.574951171875,55.593314064072466,66.94106362178678,-56.31089252740946,0.8923172086857151,,,,3,0,3,3
1788937869.5887957,3131100039.0,-9.3125,3.6328125,2.2265625,-0.111328125,-0.10546875,0.07421875,18.9375,-22.375,-30.4375,18.9375,-22.375,-30.4375,0.03489268444083311,-0.5778170066990235,0.23380560536611283,0.7811817626143602,55.55010602865182,66.7914330119788,-146.81819003474106,0.52978515625,0.57281494140625,0.24639892578125,-0.57489013671875,55.51029766822663,66.88055696726789,-56.349420092785884,0.8931421734712669,,,,3,0,3,3
1788937869.5953805,3131104021.0,-9.3125,3.6328125,2.2265625,-0.126953125,-0.126953125,0.072265625,19.375,-19.125,-30.6875,19.375,-19.125,-30.6875,0.034598362273534605,-0.5775632741360189,0.23384721418798915,0.781370013574739,55.526526681344535,66.74586334955454,-146.82231115064158,0.52978515625,0.57281494140625,0.24639892578125,-0.57489013671875,55.51029766822663,66.88055696726789,-56.349420092785884,0.8821555150074557,,,,3,0,3,3
1788937869.605595,3131107975.0,-9.3125,3.6328125,2.2265625,-0.126953125,-0.126953125,0.072265625,19.375,-19.125,-30.6875,19.375,-19.125,-30.6875,0.03430717547666866,-0.5773138532295933,0.23388842661900705,0.7815548198774659,55.50368421236156,66.70095175648754,-146.82590063289297,0.52978515625,0.57281494140625,0.24639892578125,-0.57489013671875,55.51029766822663,66.88055696726789,-56.349420092785884,0.8738783435305852,,,,3,0,3,3
1788937869.6097891,3131111881.0,-9.31640625,3.6328125,2.265625,-0.1484375,-0.142578125,0.07421875,19.375,-19.125,-30.6875,19.375,-19.125,-30.6875,0.03399761055550419,-0.577032019027703,0.2338981804055385,0.7817735303118845,55.467703459021074,66.65286571940545,-146.83855584637618,0.530517578125,0.57220458984375,0.2462158203125,-0.57489013671875,55.354197957139505,66.80259655608145,-56.43659206256548,0.9717230452035395,,,,3,0,3,3
1788937869.6149452,3131115664.0,-9.27734375,3.671875,2.3046875,-0.15234375,-0.154296875,0.072265625,18.75,-19.625,-30.8125,18.75,-19.625,-30.8125,0.03372285647560158,-0.576733962358593,0.23390771803113747,0.7820024840489632,55.424568050274296,66.60522731621987,-146.86126593150294,0.530517578125,0.57220458984375,0.2462158203125,-0.57489013671875,55.354197957139505,66.80259655608145,-56.43659206256548,0.9660046122446582,,,,3,0,3,3
1788937869.6149452,3131120146.0,-9.23828125,3.671875,2.3046875,-0.17578125,-0.166015625,0.07421875,18.75,-19.625,-30.8125,18.75,-19.625,-30.8125,0.033368883159875636,-0.5763602518841564,0.23387919640834862,0.7823016676270601,55.36243052375643,66.54655171184358,-146.8935384539166,0.5313720703125,0.5714111328125,0.24609375,-0.574951171875,55.14358456646638,66.72250737191666,-56.56548227723053,0.9096639658313543,,,,3,0,3,3
1788937869.6129775,3131123929.0,-9.234375,3.6328125,2.265625,-0.189453125,-0.169921875,0.080078125,23.0,-20.0,-35.0,23.0,-20.0,-35.0,0.03295675772238107,-0.5760667449567702,0.2336345167601467,0.7826083759158169,55.27622071758088,66.50128135252295,-146.92620056592543,0.5313720703125,0.5714111328125,0.24609375,-0.574951171875,55.14358456646638,66.72250737191666,-56.56548227723053,0.889486246655188,,,,3,0,2,3
1788937869.6149452,3131128006.0,-9.1953125,3.5546875,2.265625,-0.189453125,-0.169921875,0.080078125,23.0,-20.0,-35.0,23.0,-20.0,-35.0,0.03253212389463755,-0.5757609198548811,0.2333307995312017,0.7829417360652677,55.175191430107986,66.45634633568088,-146.96763395649606,0.5313720703125,0.5714111328125,0.24609375,-0.574951171875,55.14358456646638,66.72250737191666,-56.56548227723053,0.8737788756298653,,,,3,0,2,3
1788937869.627128,3131131612.0,-9.16015625,3.44140625,2.3046875,-0.203125,-0.17578125,0.09765625,23.0,-20.0,-35.0,23.0,-20.0,-35.0,0.03217883579485286,-0.5754730979826319,0.23301625373973733,0.7832615537087585,55.06948190225102,66.41797587110996,-147.01858373659948,0.5323486328125,0.570556640625,0.2459716796875,-0.574951171875,54.926631932757005,66.63106125367158,-56.68493432713626,0.8571447277242307,,,,3,0,2,3
1788937869.627128,3131135971.0,-9.15625,3.44140625,2.33984375,-0.203125,-0.173828125,0.107421875,22.125,-17.75,-35.875,22.125,-17.75,-35.875,0.03178600229459676,-0.5751503567520755,0.23261361502791567,0.7836342407588714,54.939714932085565,66.37711363488607,-147.08292802653364,0.5323486328125,0.570556640625,0.2459716796875,-0.574951171875,54.926631932757005,66.63106125367158,-56.68493432713626,0.8416321299253033,,,,3,0,2,3
1788937869.627128,3131139478.0,-9.08203125,3.40234375,2.37890625,-0.208984375,-0.173828125,0.12109375,22.125,-17.75,-35.875,22.125,-17.75,-35.875,0.03144870603496763,-0.5748778932097474,0.2322984509795318,0.7839412072725598,54.836636754459974,66.34127470583762,-147.1324400642262,0.533447265625,0.5697021484375,0.24578857421875,-0.57489013671875,54.724194213886,66.52914324346861,-56.79076298235335,0.4978245839757455,,,,3,0,2,3
1788937869.6428556,3131143707.0,-9.08203125,3.36328125,2.41796875,-0.208984375,-0.173828125,0.12109375,22.125,-17.75,-35.875,22.125,-17.75,-35.875,0.031049914451343398,-0.5745455541787227,0.2319184158601042,0.7843131755688978,54.711081901126036,66.2981180185194,-147.1940695754054,0.533447265625,0.5697021484375,0.24578857421875,-0.57489013671875,54.724194213886,66.52914324346861,-56.79076298235335,0.47125486355268564,,,,3,0,2,3
1788937869.6448088,3131147614.0,-9.00390625,3.2890625,2.45703125,-0.19140625,-0.154296875,0.138671875,22.5,-19.625,-35.75,22.5,-19.625,-35.75,0.03067079151494586,-0.5742261412482343,0.23163756275645342,0.7846449393039246,54.60945257988785,66.25352937770853,-147.24185399660027,0.533447265625,0.5697021484375,0.24578857421875,-0.57489013671875,54.724194213886,66.52914324346861,-56.79076298235335,0.4607623024643656,,,,3,0,2,3
1788937869.6448088,3131151220.0,-8.96484375,3.2109375,2.45703125,-0.166015625,-0.12890625,0.1484375,22.5,-19.625,-35.75,22.5,-19.625,-35.75,0.030336740678109035,-0.5739674254979612,0.23141798159971455,0.7849119660347813,54.5317656448833,66.21549026696982,-147.27439755478474,0.5345458984375,0.5689697265625,0.24554443359375,-0.57470703125,54.5705811563045,66.41841345442685,-56.84532054133488,0.33203418374651633,,,,3,0,2,3
1788937869.6541555,3131155303.0,-8.9296875,3.171875,2.33984375,-0.150390625,-0.103515625,0.169921875,21.375,-18.4375,-34.375,21.375,-18.4375,-34.375,0.029933242690434715,-0.5737420636479469,0.23119498409659736,0.7851578979489443,54.46794758592368,66.17692280182966,-147.2869488357383,0.5345458984375,0.5689697265625,0.24554443359375,-0.57470703125,54.5705811563045,66.41841345442685,-56.84532054133488,0.2998856014360693,,,,3,0,2,3
1788937869.6585264,3131158709.0,-9.0,3.2109375,2.3046875,-0.115234375,-0.06640625,0.17578125,21.375,-18.4375,-34.375,21.375,-18.4375,-34.375,0.029605544510717126,-0.5736152321937306,0.23105719284415893,0.7853035405271859,54.43900509224553,66.14973554532905,-147.2777401080728,0.53558349609375,0.5684814453125,0.2452392578125,-0.5743408203125,54.50494195609907,66.30481907610867,-56.81727483722677,0.567406702502949,,,,3,0,2,3
1788937869.6585264,3131163062.0,-9.0390625,3.2890625,2.3046875,-0.115234375,-0.06640625,0.17578125,21.375,-18.4375,-34.375,21.375,-18.4375,-34.375,0.029167259795087164,-0.5734552713065716,0.23088307053423343,0.7854879569461498,54.40489367622713,66.11399281366495,-147.26165777325207,0.53558349609375,0.5684814453125,0.2452392578125,-0.5743408203125,54.50494195609907,66.30481907610867,-56.81727483722677,0.5400782259983489,,,,3,0,2,3
1788937869.6585264,3131166945.0,-9.00390625,3.36328125,2.37890625,-0.087890625,-0.037109375,0.17578125,18.25,-19.5,-30.25,18.25,-19.5,-30.25,0.02880168147919149,-0.5732767218663335,0.23112322599575263,0.785561148298131,54.452455168883795,66.06429629850916,-147.2055329923045,0.53558349609375,0.5684814453125,0.2452392578125,-0.5743408203125,54.50494195609907,66.30481907610867,-56.81727483722677,0.5278027989425673,,,,3,0,3,3
1788937869.6585264,3131170751.0,-8.96484375,3.40234375,2.41796875,-0.078125,-0.01171875,0.1640625,18.25,-19.5,-30.25,18.25,-19.5,-30.25,0.028450464486293306,-0.5731282611230346,0.23136045436832922,0.7856124410465258,54.504768195091415,66.01867899454281,-147.14545800248226,0.536376953125,0.568359375,0.24493408203125,-0.5738525390625,54.550487049029314,66.21466611382135,-56.71016912355888,0.5414017771173302,,,,3,0,3,3
1788937869.674314,3131174534.0,-8.93359375,3.36328125,2.41796875,-0.08984375,0.013671875,0.15234375,18.4375,-20.125,-31.3125,18.4375,-20.125,-31.3125,0.02810476449213166,-0.5730215412668026,0.2315678629779478,0.785641623320001,54.55935216493956,65.97888018490626,-147.080827954912,0.536376953125,0.568359375,0.24493408203125,-0.5738525390625,54.550487049029314,66.21466611382135,-56.71016912355888,0.5255467976793076,,,,3,0,3,3
1788937869.674314,3131178487.0,-8.96484375,3.40234375,2.49609375,-0.08984375,0.013671875,0.15234375,18.4375,-20.125,-31.3125,18.4375,-20.125,-31.3125,0.02773949029807945,-0.5728881802634738,0.23177580816346474,0.7856905423527644,54.609602732812846,65.93512560062412,-147.01908793250612,0.536376953125,0.568359375,0.24493408203125,-0.5738525390625,54.550487049029314,66.21466611382135,-56.71016912355888,0.5142301255432408,,,,3,0,3,3
1788937869.674314,3131182393.0,-8.9296875,3.48046875,2.49609375,-0.08984375,0.0390625,0.12890625,18.4375,-20.125,-31.3125,18.4375,-20.125,-31.3125,0.027386954675774063,-0.5728082703561367,0.23195499533801095,0.785708292092518,54.664396270328695,65.89878211104707,-146.9511531350732,0.53704833984375,0.568359375,0.2447509765625,-0.57330322265625,54.63184861244425,66.14483895032159,-56.56992714585708,0.5372513847607762,,,,3,0,3,3
1788937869.674314,3131186376.0,-8.85546875,3.5546875,2.41796875,-0.083984375,0.056640625,0.1015625,18.875,-19.4375,-29.8125,18.875,-19.4375,-29.8125,0.02704925890335422,-0.5727852206460777,0.23211970815778982,0.7856881504050738,54.727520218831195,65.86974808411274,-146.87462135141922,0.53704833984375,0.568359375,0.2447509765625,-0.57330322265625,54.63184861244425,66.14483895032159,-56.56992714585708,0.5194584709933316,,,,3,0,3,3
1788937869.688543,3131190082.0,-8.85546875,3.671875,2.33984375,-0.083984375,0.068359375,0.080078125,18.875,-19.4375,-29.8125,18.875,-19.4375,-29.8125,0.02675191820697271,-0.5728091041280137,0.23225049063202258,0.7856422689121905,54.79000164567046,65.84928390197182,-146.79892468849482,0.5374755859375,0.56842041015625,0.244873046875,-0.57275390625,54.717379895624056,66.1145188296148,-56.41435750194044,0.9256869659498271,,,,3,0,3,3
1788937869.6940575,3131194842.0,-8.89453125,3.7109375,2.33984375,-0.09765625,0.0703125,0.044921875,19.1875,-19.0,-30.0625,19.1875,-19.0,-30.0625,0.026391339979368163,-0.5728596091071056,0.2323356705220237,0.785592452631025,54.85432579467182,65.82958630956296,-146.71217278127466,0.5374755859375,0.56842041015625,0.244873046875,-0.57275390625,54.717379895624056,66.1145188296148,-56.41435750194044,0.9104292199838844,,,,3,0,3,3
1788937869.6960225,3131197818.0,-8.890625,3.7109375,2.3046875,-0.09765625,0.0703125,0.044921875,19.1875,-19.0,-30.0625,19.1875,-19.0,-30.0625,0.02616670365842783,-0.5728976309890541,0.2323894402208217,0.7855563354086292,54.89601946253223,65.81794490272135,-146.65654043951108,0.5374755859375,0.56842041015625,0.244873046875,-0.57275390625,54.717379895624056,66.1145188296148,-56.41435750194044,0.9016101444456481,,,,3,0,3,3
1788937869.7001333,3131201725.0,-8.93359375,3.6328125,2.37890625,-0.123046875,0.05859375,0.01953125,19.1875,-19.0,-30.0625,19.1875,-19.0,-30.0625,0.025893086805152076,-0.5729228545768777,0.23239219642449752,0.7855461907489467,54.92799045075276,65.8040982284422,-146.60228572091756,0.537841796875,0.56842041015625,0.2452392578125,-0.57232666015625,54.77572059494671,66.12691276356482,-56.30559117616485,0.0,,,,3,0,3,3
1788937869.7042072,3131206484.0,-8.890625,3.671875,2.41796875,-0.15234375,0.037109375,0.0,20.0,-18.25,-30.875,20.0,-18.25,-30.875,0.02550723936438652,-0.572895476656354,0.23220565738337462,0.7856339390873154,54.91634775880194,65.78574641643834,-146.56639404931835,0.537841796875,0.56842041015625,0.2452392578125,-0.57232666015625,54.77572059494671,66.12691276356482,-56.30559117616485,0.0,,,,3,0,3,3
1788937869.7091253,3131210190.0,-8.93359375,3.7109375,2.37890625,-0.18359375,0.01953125,-0.017578125,20.0,-18.25,-30.875,20.0,-18.25,-30.875,0.025195749460566925,-0.5728720084112057,0.23201588716777832,0.7857171655817254,54.89797938273086,65.77237538978413,-146.54302592950867,0.5382080078125,0.568115234375,0.24578857421875,-0.57196044921875,54.728405129193774,66.12769015670351,-56.23510203109979,1.0565112156579692,,,,3,0,3,3
1788937869.7114348,3131213973.0,-8.9296875,3.7109375,2.3046875,-0.205078125,0.0078125,-0.029296875,18.75,-17.625,-30.3125,18.75,-17.625,-30.3125,0.02486569178555074,-0.5728644728096782,0.23178935176682058,0.7858000315423973,54.876907272387726,65.76102339522126,-146.51761383135587,0.5382080078125,0.568115234375,0.24578857421875,-0.57196044921875,54.728405129193774,66.12769015670351,-56.23510203109979,1.0410405177547564,,,,3,0,3,3
1788937869.7134025,3131217850.0,-8.93359375,3.6328125,2.2265625,-0.205078125,0.0078125,-0.029296875,18.75,-17.625,-30.3125,18.75,-17.625,-30.3125,0.024530615298430977,-0.5729012449848503,0.2315589483789169,0.7858516818290454,54.865683152179585,65.75409289580128,-146.48142703849336,0.5382080078125,0.568115234375,0.24578857421875,-0.57196044921875,54.728405129193774,66.12769015670351,-56.23510203109979,1.025405313066949,,,,3,0,3,3
1788937869.7165115,3131221456.0,-8.9296875,3.5546875,2.1875,-0.2265625,-0.015625,-0.0390625,18.75,-17.625,-30.3125,18.75,-17.625,-30.3125,0.024234067130325644,-0.572940642683282,0.23128982914237553,0.7859114103302492,54.842947387280375,65.75130017967417,-146.45657145166385,0.5386962890625,0.5675048828125,0.2464599609375,-0.57177734375,54.58066323828252,66.13581149000846,-56.2556882360293,1.3044125377898068,,,,3,0,3,3
1788937869.7165115,3131226015.0,-8.96484375,3.48046875,2.265625,-0.24609375,-0.03515625,-0.03515625,22.3125,-19.5625,-35.0625,22.3125,-19.5625,-35.0625,0.023852695590834715,-0.5729611808861137,0.23064501102617552,0.7860975849087546,54.7408532231456,65.75666455179201,-146.47191772936085,0.5386962890625,0.5675048828125,0.2464599609375,-0.57177734375,54.58066323828252,66.13581149000846,-56.2556882360293,1.283609928654871,,,,3,0,2,3
1788937869.7257357,3131229321.0,-8.96484375,3.40234375,2.37890625,-0.263671875,-0.05078125,-0.025390625,22.3125,-19.5625,-35.0625,22.3125,-19.5625,-35.0625,0.02360994935275745,-0.5729046366096194,0.23015637522630286,0.7862893173542735,54.64262981571087,65.75607018928856,-146.50850024254999,0.53936767578125,0.5667724609375,0.2471923828125,-0.5716552734375,54.406156806530056,66.15636804397984,-56.32113841154786,0.42787567765868195,,,,3,0,2,3
1788937869.7237825,3131233351.0,-9.0,3.36328125,2.3046875,-0.263671875,-0.05078125,-0.025390625,22.3125,-19.5625,-35.0625,22.3125,-19.5625,-35.0625,0.023325118028329393,-0.5728955198322253,0.22952867014034664,0.786487922226866,54.5285910630361,65.76344265161828,-146.54531477231512,0.53936767578125,0.5667724609375,0.2471923828125,-0.5716552734375,54.406156806530056,66.15636804397984,-56.32113841154786,0.37297542261961397,,,,3,0,2,3
1788937869.7257357,3131237157.0,-9.0390625,3.2890625,2.3046875,-0.28515625,-0.0625,-0.009765625,22.25,-21.5625,-36.0,22.25,-21.5625,-36.0,0.02308671948845552,-0.5728842526181105,0.22917971724010955,0.7866049158829315,54.471321474724114,65.76215492397726,-146.5531258589754,0.53936767578125,0.5667724609375,0.2471923828125,-0.5716552734375,54.406156806530056,66.15636804397984,-56.32113841154786,0.3430517281305816,,,,3,0,2,3
1788937869.7257357,3131241064.0,-9.08203125,3.171875,2.3046875,-0.296875,-0.068359375,0.00390625,22.25,-21.5625,-36.0,22.25,-21.5625,-36.0,0.022896251339216894,-0.5728851250673406,0.22868987818660824,0.7867523973691998,54.38123653055808,65.7706166670339,-146.5855341084816,0.5401611328125,0.56585693359375,0.24786376953125,-0.57147216796875,54.180669128832264,66.13704711441025,-56.38173496680101,0.9513112055510005,,,,3,0,2,3
1788937869.7420967,3131244946.0,-9.04296875,3.13671875,2.3046875,-0.287109375,-0.064453125,0.02734375,21.4375,-21.1875,-36.6875,21.4375,-21.1875,-36.6875,0.022668299473498688,-0.5728783609083368,0.22815502215902783,0.7869191938601895,54.283006939868784,65.7778713575105,-146.6191896528699,0.5401611328125,0.56585693359375,0.24786376953125,-0.57147216796875,54.180669128832264,66.13704711441025,-56.38173496680101,0.9340033773965077,,,,3,0,2,3
1788937869.7420967,3131249329.0,-9.1171875,3.13671875,2.33984375,-0.2734375,-0.068359375,0.033203125,21.4375,-21.1875,-36.6875,21.4375,-21.1875,-36.6875,0.022430675160944002,-0.5728502320395703,0.22757905917586396,0.7871132372719081,54.17174646242319,65.78398555955785,-146.661650895114,0.5411376953125,0.56494140625,0.24847412109375,-0.57122802734375,53.97440857288357,66.11191068463984,-56.43564081554106,0.5714163436640638,,,,3,0,2,3
1788937869.7420967,3131252706.0,-9.1171875,3.05859375,2.3046875,-0.2734375,-0.068359375,0.033203125,21.4375,-21.1875,-36.6875,21.4375,-21.1875,-36.6875,0.022246939303270475,-0.5728358117195629,0.22714790951053396,0.7872534748784666,54.09055823940064,65.78889638162045,-146.6908373876911,0.5411376953125,0.56494140625,0.24847412109375,-0.57122802734375,53.97440857288357,66.11191068463984,-56.43564081554106,0.5458749662271833,,,,3,0,2,3
1788937869.7420967,3131256789.0,-9.08203125,3.05859375,2.37890625,-0.25390625,-0.06640625,0.056640625,22.0,-19.9375,-34.8125,22.0,-19.9375,-34.8125,0.02198036360158457,-0.5727646833868744,0.22663027831420637,0.787461870843218,53.98520507325235,65.78650350525683,-146.73021609247024,0.5411376953125,0.56494140625,0.24847412109375,-0.57122802734375,53.97440857288357,66.11191068463984,-56.43564081554106,0.5232888444463667,,,,3,0,2,3
1788937869.7589629,3131260595.0,-9.0390625,3.09765625,2.41796875,-0.23828125,-0.056640625,0.064453125,22.0,-19.9375,-34.8125,22.0,-19.9375,-34.8125,0.021724515155991386,-0.5726845572425356,0.22618003374221096,0.7876566737313475,53.89175959061513,65.78111168717815,-146.76439075809088,0.54205322265625,0.564208984375,0.2489013671875,-0.5709228515625,53.82605940358166,66.07473001682011,-56.45023241405762,0.0,,,,3,0,2,3
1788937869.7589629,3131265354.0,-9.0,3.09765625,2.45703125,-0.22265625,-0.04296875,0.076171875,19.5625,-20.25,-31.8125,19.5625,-20.25,-31.8125,0.021414771962822092,-0.5725260518387887,0.2260546999532799,0.787816349244354,53.85749202362067,65.75147096199244,-146.76316725794092,0.54205322265625,0.564208984375,0.2489013671875,-0.5709228515625,53.82605940358166,66.07473001682011,-56.45023241405762,0.0,,,,3,0,2,3
1788937869.7589629,3131269307.0,-8.9296875,3.09765625,2.41796875,-0.22265625,-0.04296875,0.076171875,19.5625,-20.25,-31.8125,19.5625,-20.25,-31.8125,0.021141963250473454,-0.572405953104643,0.2259547983407349,0.787939636867621,53.83411015319081,65.72697724539914,-146.7561100529911,0.54205322265625,0.564208984375,0.2489013671875,-0.5709228515625,53.82605940358166,66.07473001682011,-56.45023241405762,0.0,,,,3,0,2,3
1788937869.7589629,3131272814.0,-8.93359375,3.05859375,2.41796875,-0.22265625,-0.033203125,0.087890625,19.5625,-20.25,-31.8125,19.5625,-20.25,-31.8125,0.02089774200894342,-0.5723147512029059,0.2258672326078572,0.7880375011181586,53.8173211081315,65.70667373546206,-146.74574329691396,0.54296875,0.56353759765625,0.24920654296875,-0.57049560546875,53.70237441960129,66.00968201786321,-56.41590817536323,1.1277900004119474,,,,3,0,2,3
1788937869.7756174,3131276996.0,-8.8515625,3.05859375,2.41796875,-0.21484375,-0.0234375,0.095703125,19.375,-18.1875,-30.625,19.375,-18.1875,-30.625,0.020658325358734863,-0.5722139815952173,0.22552495557468188,0.7882150006650208,53.74179268709774,65.6958160056911,-146.7726966581682,0.54296875,0.56353759765625,0.24920654296875,-0.57049560546875,53.70237441960129,66.00968201786321,-56.41590817536323,1.118381694923061,,,,3,0,2,3
1788937869.7756174,3131280703.0,-8.85546875,3.09765625,2.41796875,-0.20703125,-0.017578125,0.08984375,19.375,-18.1875,-30.625,19.375,-18.1875,-30.625,0.020474601731953083,-0.5721168030386055,0.22526408756337976,0.7883649188155454,53.67979212041461,65.68534895370584,-146.797656718819,0.54388427734375,0.56304931640625,0.24951171875,-0.570068359375,53.642604058387285,65.97447979156225,-56.374680894165984,0.0,,,,3,0,2,3
1788937869.7756174,3131284862.0,-8.8515625,3.05859375,2.45703125,-0.185546875,-0.005859375,0.087890625,19.0,-17.75,-30.9375,19.0,-17.75,-30.9375,0.02020194673006845,-0.5720490450364742,0.22491693812954106,0.7885202231798533,53.613971217847066,65.67616405492097,-146.81163101165276,0.54388427734375,0.56304931640625,0.24951171875,-0.570068359375,53.642604058387285,65.97447979156225,-56.374680894165984,0.0,,,,3,0,3,3
1788937869.7756174,3131288239.0,-8.89453125,3.01953125,2.5703125,-0.185546875,-0.005859375,0.087890625,19.0,-17.75,-30.9375,19.0,-17.75,-30.9375,0.019969386371889355,-0.5719731527917165,0.22465140041452278,0.7886568863487009,53.560528822671934,65.66523720266093,-146.8235468164611,0.54388427734375,0.56304931640625,0.24951171875,-0.570068359375,53.642604058387285,65.97447979156225,-56.374680894165984,0.0,,,,3,0,3,3
1788937869.7886424,3131292145.0,-8.8515625,2.9453125,2.53125,-0.17578125,0.00390625,0.078125,19.0,-17.75,-30.9375,19.0,-17.75,-30.9375,0.01973943781623106,-0.5719235346971415,0.22433552193137976,0.788788563972629,53.501732708402194,65.65919901325663,-146.83660887087382,0.54461669921875,0.5626220703125,0.249755859375,-0.569580078125,53.58843930795256,65.9175304583147,-56.29183438611702,1.195336622240604,,,,3,0,3,3
1788937869.7922544,3131296328.0,-8.81640625,2.90625,2.609375,-0.171875,0.01953125,0.068359375,18.9375,-18.3125,-31.375,18.9375,-18.3125,-31.375,0.019511223034294138,-0.5718674953709139,0.22402926841294726,0.788921901589925,53.443490516293544,65.65221491981119,-146.8501123271806,0.54461669921875,0.5626220703125,0.249755859375,-0.569580078125,53.58843930795256,65.9175304583147,-56.29183438611702,1.1861774012636155,,,,3,0,3,3
1788937869.7922544,3131300034.0,-8.85546875,2.8671875,2.53125,-0.162109375,0.03515625,0.064453125,18.9375,-18.3125,-31.375,18.9375,-18.3125,-31.375,0.019349482121277177,-0.5718749115815052,0.2237503166052395,0.7889996697491951,53.39922840775321,65.65463102709464,-146.85717183847404,0.5452880859375,0.56231689453125,0.2501220703125,-0.56915283203125,53.57050658135433,65.90442019739174,-56.22406325429235,0.5938032102820359,,,,3,0,3,3
1788937869.7922544,3131304293.0,-8.8125,2.828125,2.5703125,-0.15625,0.052734375,0.046875,19.0625,-17.6875,-30.625,19.0625,-17.6875,-30.625,0.019161197123124012,-0.5719172394815695,0.22340603487536004,0.7890711395621178,53.351001066515515,65.66173312200652,-146.8602833066723,0.5452880859375,0.56231689453125,0.2501220703125,-0.56915283203125,53.57050658135433,65.90442019739174,-56.22406325429235,0.5692679146893846,,,,3,0,3,3
1788937869.7922544,3131308370.0,-8.77734375,2.7890625,2.5703125,-0.15625,0.052734375,0.046875,19.0625,-17.6875,-30.625,19.0625,-17.6875,-30.625,0.018982858710150752,-0.5719582680860363,0.22307681551490063,0.7891388502810791,53.30485731499724,65.66868835217517,-146.86342678004723,0.5452880859375,0.56231689453125,0.2501220703125,-0.56915283203125,53.57050658135433,65.90442019739174,-56.22406325429235,0.5484780015325175,,,,3,0,3,3
1788937869.808746,3131312276.0,-8.73828125,2.75390625,2.6484375,-0.1484375,0.06640625,0.04296875,19.0625,-17.6875,-30.625,19.0625,-17.6875,-30.625,0.01880855515456526,-0.5720038097799156,0.2227802766649974,0.7891937836674381,53.266550021246616,65.67505830913342,-146.861851101697,0.5457763671875,0.56207275390625,0.2506103515625,-0.56866455078125,53.561361389907454,65.89746564488969,-56.119989789939204,1.0290369893192544,,,,3,0,3,3
1788937869.8132508,3131315659.0,-8.7734375,2.75390625,2.5703125,-0.13671875,0.087890625,0.03125,18.1875,-17.5,-32.4375,18.1875,-17.5,-32.4375,0.01866755670642433,-0.5721029382339853,0.22250240777914218,0.7892036675808961,53.24122710112444,65.68821675686213,-146.85141061964447,0.5457763671875,0.56207275390625,0.2506103515625,-0.56866455078125,53.561361389907454,65.89746564488969,-56.119989789939204,1.016716535677203,,,,3,0,3,3
1788937869.8132508,3131320142.0,-8.77734375,2.71484375,2.609375,-0.134765625,0.099609375,0.017578125,18.1875,-17.5,-32.4375,18.1875,-17.5,-32.4375,0.01850163383138458,-0.5722561128787874,0.2221246427971226,0.7892029358033842,53.2084854420437,65.70953488630212,-146.83757630211048,0.54620361328125,0.56201171875,0.25115966796875,-0.56817626953125,53.61097054671133,65.92497496942762,-56.00520188018703,0.0,,,,3,0,3,3
1788937869.8112977,3131323195.0,-8.77734375,2.67578125,2.5703125,-0.134765625,0.099609375,0.017578125,18.1875,-17.5,-32.4375,18.1875,-17.5,-32.4375,0.018394420036116275,-0.5723679602477562,0.22186398117983874,0.7891976541072522,53.18659112749205,65.72531701362148,-146.82790881016808,0.54620361328125,0.56201171875,0.25115966796875,-0.56817626953125,53.61097054671133,65.92497496942762,-56.00520188018703,0.0,,,,3,0,3,3
1788937869.8256369,3131327978.0,-8.73828125,2.67578125,2.5703125,-0.130859375,0.111328125,0.013671875,21.875,-18.1875,-35.6875,21.875,-18.1875,-35.6875,0.018196063781635328,-0.572577833803093,0.22144313983584127,0.7891682097752394,53.16031722706583,65.75239835141615,-146.80104775405826,0.54620361328125,0.56201171875,0.25115966796875,-0.56817626953125,53.61097054671133,65.92497496942762,-56.00520188018703,0.0,,,,3,0,2,3
1788937869.8105218,3131331884.0,-8.6953125,2.71484375,2.53125,-0.126953125,0.111328125,0.0078125,21.875,-18.1875,-35.6875,21.875,-18.1875,-35.6875,0.018044610153397304,-0.5727526800643696,0.22109766597870267,0.7891416739865307,53.13826244136112,65.77557155861923,-146.7804135056442,0.54644775390625,0.56195068359375,0.25177001953125,-0.567626953125,53.64745918371553,65.9394390995768,-55.85446601500891,1.053897277874548,,,,3,0,2,3
1788937869.8169997,3131334790.0,-8.734375,2.7890625,2.53125,-0.130859375,0.11328125,0.0,22.125,-17.3125,-35.875,22.125,-17.3125,-35.875,0.017924589056904704,-0.5728911444081035,0.22082672411948465,0.7891197651057611,53.12141088079881,65.79382155984852,-146.7636834771787,0.54644775390625,0.56195068359375,0.25177001953125,-0.567626953125,53.64745918371553,65.9394390995768,-55.85446601500891,1.0431539496266093,,,,3,0,2,3
1788937869.8256369,3131339373.0,-8.734375,2.75390625,2.45703125,-0.12890625,0.103515625,-0.0078125,22.125,-17.3125,-35.875,22.125,-17.3125,-35.875,0.017762712291829977,-0.5731098411930016,0.22038629190607228,0.7890877507094263,53.089386466195,65.82476713563709,-146.74387572587236,0.546630859375,0.56195068359375,0.25244140625,-0.567138671875,53.69836132844146,65.9784559838011,-55.71886218205941,1.1625118206590346,,,,3,0,2,3
1788937869.8402894,3131343403.0,-8.6953125,2.71484375,2.53125,-0.12890625,0.103515625,-0.0078125,22.125,-17.3125,-35.875,22.125,-17.3125,-35.875,0.017620390295763125,-0.5732889202953323,0.2200048901190688,0.789067287394512,53.059553453373915,65.8503804149096,-146.7286969826053,0.546630859375,0.56195068359375,0.25244140625,-0.567138671875,53.69836132844146,65.9784559838011,-55.71886218205941,1.151469545942135,,,,3,0,2,3
1788937869.8422425,3131346909.0,-8.62109375,2.67578125,2.49609375,-0.130859375,0.087890625,-0.017578125,21.4375,-20.6875,-36.625,21.4375,-20.6875,-36.625,0.01758377486271331,-0.5734007190209841,0.21969741216241476,0.7890725399967572,53.020509377396834,65.87217141032745,-146.73798757313685,0.546630859375,0.56195068359375,0.25244140625,-0.567138671875,53.69836132844146,65.9784559838011,-55.71886218205941,1.149348363619885,,,,3,0,2,3
1788937869.8422425,3131350815.0,-8.578125,2.59765625,2.45703125,-0.126953125,0.08203125,-0.015625,21.4375,-20.6875,-36.625,21.4375,-20.6875,-36.625,0.017554907282050846,-0.5735300120336241,0.2193573683852141,0.7890738213007342,52.977451248546416,65.89753835797477,-146.74907680839482,0.54681396484375,0.5618896484375,0.25311279296875,-0.56671142578125,53.72600107120396,66.01751997180264,-55.606990238981766,1.2528496489724092,,,,3,0,2,3
1788937869.8422425,3131354398.0,-8.5390625,2.63671875,2.45703125,-0.125,0.06640625,-0.009765625,22.5625,-17.6875,-35.1875,22.5625,-17.6875,-35.1875,0.017459819770602552,-0.5736381560991493,0.21902094630225863,0.7890907714842503,52.93684347368338,65.9167180095612,-146.7526864164531,0.54681396484375,0.5618896484375,0.25311279296875,-0.56671142578125,53.72600107120396,66.01751997180264,-55.606990238981766,1.2486849725626872,,,,3,0,2,3
1788937869.8422425,3131358951.0,-8.5390625,2.71484375,2.49609375,-0.125,0.06640625,-0.009765625,22.5625,-17.6875,-35.1875,22.5625,-17.6875,-35.1875,0.017328837649532153,-0.5737632716157735,0.21859872492678944,0.7891197735393926,52.88459678654929,65.9390143459468,-146.75759302522164,0.54681396484375,0.5618896484375,0.25311279296875,-0.56671142578125,53.72600107120396,66.01751997180264,-55.606990238981766,1.2452979636557437,,,,3,0,2,3
1788937869.8568368,3131363434.0,-8.51171875,2.7890625,2.53125,-0.1015625,0.044921875,-0.005859375,22.5625,-17.6875,-35.1875,22.5625,-17.6875,-35.1875,0.017221366251344253,-0.5738311995760146,0.21823723208407284,0.7891727880951495,52.83048535015052,65.95428232369439,-146.77171308233815,0.54705810546875,0.561767578125,0.253662109375,-0.56640625,53.73083305183226,66.05184991616116,-55.54244740699276,0.8839238809244034,,,,3,0,2,3
1788937869.85879,3131367140.0,-8.46875,2.828125,2.5703125,-0.078125,0.025390625,-0.0078125,22.5625,-17.6875,-35.1875,22.5625,-17.6875,-35.1875,0.017160388889084523,-0.573847403214231,0.2179788492265627,0.789233742415593,52.782887852736785,65.96272750337285,-146.79215140046554,0.54705810546875,0.561767578125,0.253662109375,-0.56640625,53.73083305183226,66.05184991616116,-55.54244740699276,0.8865293273746737,,,,3,0,2,3
1788937869.85879,3131370746.0,-8.43359375,2.828125,2.49609375,-0.0859375,0.0234375,-0.013671875,22.5625,-17.6875,-35.1875,22.5625,-17.6875,-35.1875,0.01710208779648255,-0.5738708548941024,0.21770355063542504,0.789293940516993,52.73291134288752,65.97275532041647,-146.81371577107555,0.54718017578125,0.5616455078125,0.2540283203125,-0.56622314453125,53.71535063290795,66.06861499740488,-55.50455661397602,1.0715338676386108,,,,3,0,2,3
1788937869.873986,3131374529.0,-8.4296875,2.90625,2.609375,-0.087890625,0.017578125,-0.021484375,18.9375,-16.375,-31.1875,18.9375,-16.375,-31.1875,0.017044174891600438,-0.5738457187153136,0.21744835681507213,0.7893838099003517,52.67631036519146,65.97691353327421,-146.8438444170555,0.54718017578125,0.5616455078125,0.2540283203125,-0.56622314453125,53.71535063290795,66.06861499740488,-55.50455661397602,1.0765992760748622,,,,3,0,3,3
1788937869.8757732,3131378482.0,-8.43359375,2.90625,2.5703125,-0.087890625,0.017578125,-0.021484375,18.9375,-16.375,-31.1875,18.9375,-16.375,-31.1875,0.016984743058661315,-0.5738231075169996,0.21717666707020555,0.7894763169741333,52.616771023381744,65.98189503443362,-146.8753685975536,0.54718017578125,0.5616455078125,0.2540283203125,-0.56622314453125,53.71535063290795,66.06861499740488,-55.50455661397602,1.082894624613783,,,,3,0,3,3
1788937869.8757732,3131382389.0,-8.39453125,2.9453125,2.609375,-0.103515625,0.013671875,-0.02734375,18.9375,-16.375,-31.1875,18.9375,-16.375,-31.1875,0.0169075937839937,-0.5737855520232881,0.21689498105389363,0.7895827003901473,52.55337704512895,65.98467517856828,-146.90850009568297,0.54736328125,0.56146240234375,0.25439453125,-0.56610107421875,53.681860302430806,66.08973962662643,-55.49616217515984,0.8001100962179042,,,,3,0,3,3
1788937869.8757732,3131386371.0,-8.4296875,2.90625,2.609375,-0.13671875,0.01171875,-0.0390625,18.625,-18.8125,-31.8125,18.625,-18.8125,-31.8125,0.01684802146488364,-0.5736951491292767,0.21671699749662193,0.7896985266760379,52.499299565887235,65.97880488999755,-146.94282514537778,0.54736328125,0.56146240234375,0.25439453125,-0.56610107421875,53.681860302430806,66.08973962662643,-55.49616217515984,0.8104155779378776,,,,3,0,3,3
1788937869.8891165,3131389878.0,-8.43359375,2.90625,2.5703125,-0.16015625,0.01171875,-0.0390625,18.625,-18.8125,-31.8125,18.625,-18.8125,-31.8125,0.016776197374609978,-0.5736178797165622,0.21654403893219282,0.7898036252601381,52.450553219598405,65.97340060149403,-146.97119490608765,0.547607421875,0.56103515625,0.25494384765625,-0.56597900390625,53.5731786940319,66.1046063535827,-55.50864079807632,1.264195806731984,,,,3,0,3,3
1788937869.8907623,3131394137.0,-8.46875,2.90625,2.5703125,-0.177734375,0.0078125,-0.033203125,18.75,-17.1875,-30.5625,18.75,-17.1875,-30.5625,0.01664918976443277,-0.5735357343689841,0.21617160526184917,0.789967975908222,52.361942152526034,65.97218447394734,-147.0178749103609,0.547607421875,0.56103515625,0.25494384765625,-0.56597900390625,53.5731786940319,66.1046063535827,-55.50864079807632,1.2718557276006028,,,,3,0,3,3
1788937869.89273,3131398214.0,-8.54296875,2.9453125,2.609375,-0.177734375,0.0078125,-0.033203125,18.75,-17.1875,-30.5625,18.75,-17.1875,-30.5625,0.016521291057609393,-0.5734528642651744,0.21582544608503168,0.7901254560068637,52.2791283143549,65.96978559415206,-147.06093615640305,0.547607421875,0.56103515625,0.25494384765625,-0.56597900390625,53.5731786940319,66.1046063535827,-55.50864079807632,1.280540943414406,,,,3,0,3,3
1788937869.89273,3131402120.0,-8.5078125,2.90625,2.5703125,-0.19140625,0.013671875,-0.03515625,18.75,-17.1875,-30.5625,18.75,-17.1875,-30.5625,0.01639687965997549,-0.5733856549333611,0.21546663410815223,0.7902747387081029,52.19672615418428,65.96971755526889,-147.10273317416778,0.5479736328125,0.560546875,0.25555419921875,-0.5657958984375,53.45873995349703,66.11842205989892,-55.515240972708796,1.489551747821104,,,,3,0,3,3
1788937869.89273,3131405703.0,-8.54296875,2.90625,2.5703125,-0.1953125,0.01171875,-0.033203125,20.0625,-18.125,-30.1875,20.0625,-18.125,-30.1875,0.016288067361692946,-0.5733052616765182,0.21523547662894502,0.790398295415641,52.138171458697,65.96411617629408,-147.1329224449527,0.5479736328125,0.560546875,0.25555419921875,-0.5657958984375,53.45873995349703,66.11842205989892,-55.515240972708796,1.4946195936895303,,,,3,0,3,3
1788937869.9085336,3131409985.0,-8.58203125,2.8671875,2.45703125,-0.201171875,0.015625,-0.03125,20.0625,-18.125,-30.1875,20.0625,-18.125,-30.1875,0.016211214425422362,-0.5732628119764687,0.21500446568906834,0.7904935323362507,52.08501829821165,65.96432919760508,-147.16019871268918,0.5484619140625,0.56005859375,0.25628662109375,-0.56561279296875,53.358495515800186,66.16025448898756,-55.53683831064824,0.47055387814569005,,,,3,0,3,3
1788937869.9102566,3131413039.0,-8.62109375,2.90625,2.45703125,-0.201171875,0.015625,-0.03125,20.0625,-18.125,-30.1875,20.0625,-18.125,-30.1875,0.01613816162806498,-0.5732394097242397,0.21485655829867426,0.7905522109477148,52.05422378185709,65.96349754906933,-147.1724569786157,0.5484619140625,0.56005859375,0.25628662109375,-0.56561279296875,53.358495515800186,66.16025448898756,-55.53683831064824,0.47353390620631686,,,,3,0,3,3
1788937869.9138613,3131417821.0,-8.6171875,2.9453125,2.37890625,-0.203125,0.01953125,-0.037109375,18.3125,-18.8125,-31.8125,18.3125,-18.8125,-31.8125,0.015982065196445346,-0.5732776424676803,0.21462952588900977,0.7905893275623028,52.0280148214877,65.96753112532365,-147.166329409739,0.5484619140625,0.56005859375,0.25628662109375,-0.56561279296875,53.358495515800186,66.16025448898756,-55.53683831064824,0.4608971015268009,,,,3,0,3,3
1788937869.9138613,3131421728.0,-8.6171875,2.98046875,2.37890625,-0.19921875,0.015625,-0.03125,18.3125,-18.8125,-31.8125,18.3125,-18.8125,-31.8125,0.015836727107855962,-0.5732978925210446,0.21446104107845235,0.7906232897941893,52.009698087833556,65.96798635600267,-147.15826302031084,0.54888916015625,0.55950927734375,0.2569580078125,-0.56536865234375,53.232766570877686,66.16896419326433,-55.5324316558042,1.1177917432184976,,,,3,0,3,3
1788937869.9250076,3131425610.0,-8.6171875,2.98046875,2.41796875,-0.19921875,0.0078125,-0.03125,22.1875,-17.75,-35.5625,22.1875,-17.75,-35.5625,0.015663654569937537,-0.5733363303732096,0.213952662088001,0.7907365936803185,51.92279002891158,65.98213549397943,-147.18741367764653,0.54888916015625,0.55950927734375,0.2569580078125,-0.56536865234375,53.232766570877686,66.16896419326433,-55.5324316558042,1.1177530542563672,,,,3,0,2,3
1788937869.925699,3131429217.0,-8.66015625,3.01953125,2.45703125,-0.1953125,0.009765625,-0.037109375,22.1875,-17.75,-35.5625,22.1875,-17.75,-35.5625,0.015507142897905755,-0.5733658348439855,0.2134866822157006,0.7908442226313194,51.841619993923324,65.99461877320165,-147.21584650171556,0.54931640625,0.5589599609375,0.2576904296875,-0.565185546875,53.10576055709734,66.19711455342643,-55.55175593817489,0.9754574775134883,,,,3,0,2,3
1788937869.9237459,3131433246.0,-8.73828125,3.01953125,2.37890625,-0.1953125,0.009765625,-0.037109375,22.1875,-17.75,-35.5625,22.1875,-17.75,-35.5625,0.015338865880108023,-0.573443950495642,0.21294666416083177,0.7909364532351746,51.75606915481962,66.0144727924619,-147.24119825226484,0.54931640625,0.5589599609375,0.2576904296875,-0.565185546875,53.10576055709734,66.19711455342643,-55.55175593817489,0.9738715974086093,,,,3,0,2,3
1788937869.9327464,3131436753.0,-8.7734375,3.171875,2.37890625,-0.201171875,0.021484375,-0.044921875,23.375,-19.8125,-36.625,23.375,-19.8125,-36.625,0.01507859043961375,-0.5735114250352953,0.21273628506645909,0.7909491478473578,51.75067818868701,66.01505112459478,-147.20704052141963,0.54931640625,0.5589599609375,0.2576904296875,-0.565185546875,53.10576055709734,66.19711455342643,-55.55175593817489,0.9575620718263186,,,,3,0,2,3
1788937869.9417741,3131440659.0,-8.734375,3.171875,2.33984375,-0.203125,0.017578125,-0.052734375,23.375,-19.8125,-36.625,23.375,-19.8125,-36.625,0.014823453469650487,-0.5736034202953365,0.21248650566210134,0.7909544022029553,51.74153988147989,66.02006888260357,-147.17359818538048,0.54974365234375,0.55841064453125,0.2584228515625,-0.56500244140625,52.978847222055606,66.2255313799426,-55.57149011497141,0.7414443773340671,,,,3,0,2,3
1788937869.9422126,3131445218.0,-8.69921875,3.13671875,2.33984375,-0.201171875,0.03125,-0.056640625,21.875,-18.6875,-35.75,21.875,-18.6875,-35.75,0.014460705115347337,-0.5737900317172208,0.2120346056775302,0.7909470358403854,51.719636868459695,66.03692426901982,-147.12649893991252,0.54974365234375,0.55841064453125,0.2584228515625,-0.56500244140625,52.978847222055606,66.2255313799426,-55.57149011497141,0.7074761106645924,,,,3,0,2,3
1788937869.9422126,3131448795.0,-8.734375,3.05859375,2.3046875,-0.201171875,0.03125,-0.056640625,21.875,-18.6875,-35.75,21.875,-18.6875,-35.75,0.014301993019590497,-0.5739803645794184,0.21162211687141533,0.7909222931007864,51.68678148592585,66.06424735821024,-147.11043526002172,0.54974365234375,0.55841064453125,0.2584228515625,-0.56500244140625,52.978847222055606,66.2255313799426,-55.57149011497141,0.6946439381359277,,,,3,0,2,3
1788937869.9495225,3131453278.0,-8.6953125,3.01953125,2.33984375,-0.208984375,0.03515625,-0.076171875,21.875,-18.6875,-35.75,21.875,-18.6875,-35.75,0.014148663598594369,-0.5742137289955883,0.21098301546413997,0.7909264036160466,51.612659757788556,66.10536035335676,-147.11659500405284,0.550048828125,0.557861328125,0.25927734375,-0.56475830078125,52.84554734006054,66.2546311496632,-55.562861265032744,1.3953879417585968,,,,3,0,2,3
1788937869.9514756,3131456984.0,-8.734375,3.01953125,2.3046875,-0.208984375,0.04296875,-0.07421875,21.875,-18.6875,-35.75,21.875,-18.6875,-35.75,0.014021328545837191,-0.5744339158919256,0.21052970968646112,0.7908895750724069,51.57427731633412,66.13926758683249,-147.10506027320673,0.550048828125,0.557861328125,0.25927734375,-0.56475830078125,52.84554734006054,66.2546311496632,-55.562861265032744,1.3905706981508812,,,,3,0,2,3
1788937869.958726,3131460590.0,-8.69921875,2.98046875,2.37890625,-0.193359375,0.044921875,-0.080078125,21.875,-18.6875,-35.75,21.875,-18.6875,-35.75,0.013952768635881336,-0.5745839702777574,0.21000541188935593,0.7909211770615481,51.49823983635821,66.1718900678256,-147.13021128036206,0.55035400390625,0.557373046875,0.2601318359375,-0.5645751953125,52.730780174064066,66.30350617058838,-55.57376612056882,1.2570937722195532,,,,3,0,2,3
1788937869.958726,3131464173.0,-8.69921875,2.9453125,2.33984375,-0.1796875,0.064453125,-0.083984375,18.8125,-19.125,-30.8125,18.8125,-19.125,-30.8125,0.01388682355297379,-0.5747089335041413,0.20982007312307302,0.7908807336108077,51.49184512696855,66.18867907979201,-147.1149387795489,0.55035400390625,0.557373046875,0.2601318359375,-0.5645751953125,52.730780174064066,66.30350617058838,-55.57376612056882,1.2520160816792596,,,,3,0,2,3
1788937869.9517598,3131468526.0,-8.69921875,2.98046875,2.37890625,-0.1796875,0.064453125,-0.083984375,18.8125,-19.125,-30.8125,18.8125,-19.125,-30.8125,0.013799568250706986,-0.5748481227810658,0.20960224789154566,0.7908388617980212,51.48361253803613,66.20704941240567,-147.09693809363932,0.55035400390625,0.557373046875,0.2601318359375,-0.5645751953125,52.730780174064066,66.30350617058838,-55.57376612056882,1.2466553851778224,,,,3,0,2,3
1788937869.958726,3131472232.0,-8.7734375,2.98046875,2.37890625,-0.171875,0.07421875,-0.083984375,18.8125,-19.125,-30.8125,18.8125,-19.125,-30.8125,0.013733495217161317,-0.5749857388477198,0.2094256409565982,0.7907867551627178,51.48208042484157,66.2248358293083,-147.07749578213804,0.550537109375,0.55694580078125,0.2611083984375,-0.56439208984375,52.62803559332782,66.37262357357238,-55.575526150873586,1.0915440215156786,,,,3,0,2,3
1788937869.977198,3131476215.0,-8.734375,2.9453125,2.37890625,-0.171875,0.087890625,-0.0859375,18.5,-17.625,-30.375,18.5,-17.625,-30.375,0.013673255083634499,-0.5751571188678908,0.20922956763313713,0.7907150679853364,51.48327727472323,66.2473000116355,-147.0540225883131,0.550537109375,0.55694580078125,0.2611083984375,-0.56439208984375,52.62803559332782,66.37262357357238,-55.575526150873586,1.0826754912407146,,,,3,0,3,3
1788937869.9789762,3131480698.0,-8.73828125,2.90625,2.33984375,-0.17578125,0.10546875,-0.08984375,18.5,-17.625,-30.375,18.5,-17.625,-30.375,0.013610600554954286,-0.5754040766934828,0.208981601587736,0.7906020429235423,51.490318082494674,66.27968322896088,-147.0198133676991,0.5506591796875,0.55657958984375,0.2620849609375,-0.56414794921875,52.543489377942386,66.43762705732408,-55.547976747644555,1.2987752493837381,,,,3,0,3,3
1788937869.9789762,3131484281.0,-8.69921875,2.9453125,2.33984375,-0.171875,0.115234375,-0.087890625,19.6875,-18.75,-31.0,19.6875,-18.75,-31.0,0.013535594931275053,-0.5756010418017913,0.20880516094601229,0.7905065674040026,51.50333745211959,66.30325285458055,-146.9848957752817,0.5506591796875,0.55657958984375,0.2620849609375,-0.56414794921875,52.543489377942386,66.43762705732408,-55.547976747644555,1.2878495254786135,,,,3,0,3,3
1788937869.9789762,3131488357.0,-8.77734375,2.98046875,2.265625,-0.171875,0.115234375,-0.087890625,19.6875,-18.75,-31.0,19.6875,-18.75,-31.0,0.013444326336307832,-0.5758471515357696,0.208590839885335,0.7903854563903828,51.52081651373492,66.3326013864,-146.94078375289894,0.5506591796875,0.55657958984375,0.2620849609375,-0.56414794921875,52.543489377942386,66.43762705732408,-55.547976747644555,1.2752934848309216,,,,3,0,3,3
1788937869.9894245,3131491964.0,-8.77734375,2.98046875,2.265625,-0.166015625,0.11328125,-0.080078125,19.6875,-18.75,-31.0,19.6875,-18.75,-31.0,0.013358675055974843,-0.5760577171033727,0.20841866415795612,0.7902788829248905,51.5391359847839,66.35683996094077,-146.90001568367833,0.55078125,0.55633544921875,0.2630615234375,-0.5638427734375,52.50459275171273,66.51294689900247,-55.493845837065074,1.1188419228244746,,,,3,0,3,3
1788937869.9921975,3131495546.0,-8.7734375,3.01953125,2.265625,-0.1640625,0.11328125,-0.078125,19.5625,-19.3125,-31.6875,19.5625,-19.3125,-31.6875,0.013267357486217057,-0.5762594363685396,0.20825802975855096,0.7901756970842829,51.558678417432766,66.37936302267964,-146.85857902699564,0.55078125,0.55633544921875,0.2630615234375,-0.5638427734375,52.50459275171273,66.51294689900247,-55.493845837065074,1.1044290750686518,,,,3,0,3,3
1788937869.9921975,3131500029.0,-8.7734375,2.98046875,2.1875,-0.16015625,0.107421875,-0.072265625,19.5625,-19.3125,-31.6875,19.5625,-19.3125,-31.6875,0.013155935232724895,-0.5765162691843208,0.20805736735145258,0.7900430650443853,51.58403191342564,66.4081602410125,-146.80607992212205,0.55084228515625,0.55609130859375,0.26409912109375,-0.56353759765625,52.46139334999442,66.59365608764014,-55.436441238752984,1.1301752550502564,,,,3,0,3,3
1788937869.9993641,3131504059.0,-8.73828125,3.01953125,2.2265625,-0.16015625,0.107421875,-0.072265625,19.5625,-19.3125,-31.6875,19.5625,-19.3125,-31.6875,0.013047561529240869,-0.5767339401433266,0.2078879726506842,0.7899305755900848,51.60720305993859,66.43174566442795,-146.7588212818529,0.55084228515625,0.55609130859375,0.26409912109375,-0.56353759765625,52.46139334999442,66.59365608764014,-55.436441238752984,1.11278566400856,,,,3,0,3,3
1788937870.009286,3131507665.0,-8.73828125,3.01953125,2.1875,-0.158203125,0.103515625,-0.060546875,19.375,-16.25,-30.375,19.375,-16.25,-30.375,0.012918598329714997,-0.5769866552008485,0.20767352700245642,0.7898045427317398,51.63055139405343,66.4596546897903,-146.70574036126564,0.55084228515625,0.55609130859375,0.26409912109375,-0.56353759765625,52.46139334999442,66.59365608764014,-55.436441238752984,1.0937861578302952,,,,3,0,3,3
1788937870.009286,3131511571.0,-8.65625,2.9453125,2.2265625,-0.154296875,0.08984375,-0.04296875,19.375,-16.25,-30.375,19.375,-16.25,-30.375,0.012783573000692156,-0.577234518317814,0.20745902373064284,0.7896819895353228,51.653510686746806,66.48670751333464,-146.6525695207198,0.55096435546875,0.55584716796875,0.26495361328125,-0.563232421875,52.420467601042695,66.6502072496901,-55.378566763913305,1.2681229073394424,,,,3,0,3,3
1788937870.009286,3131515354.0,-8.62109375,2.98046875,2.265625,-0.1640625,0.07421875,-0.01953125,19.125,-17.5,-32.3125,19.125,-17.5,-32.3125,0.012598765105576884,-0.577369755707555,0.2073492460364246,0.7896149229087168,51.679215278005664,66.49485141355922,-146.60189694648705,0.55096435546875,0.55584716796875,0.26495361328125,-0.563232421875,52.420467601042695,66.6502072496901,-55.378566763913305,1.2523459410736109,,,,3,0,3,3
1788937870.009286,3131519060.0,-8.58203125,2.98046875,2.265625,-0.16796875,0.07421875,-0.009765625,19.125,-17.5,-32.3125,19.125,-17.5,-32.3125,0.012393680459795735,-0.5774896466500649,0.20725247842607755,0.789555897250405,51.70642582767581,66.49969535662872,-146.54922127844586,0.55126953125,0.55560302734375,0.26568603515625,-0.5628662109375,52.39790416736626,66.6917726379391,-55.311659635683526,1.0413339651245945,,,,3,0,3,3
1788937870.0073328,3131523290.0,-8.5390625,2.98046875,2.33984375,-0.16796875,0.07421875,-0.009765625,19.125,-17.5,-32.3125,19.125,-17.5,-32.3125,0.012150401208038319,-0.577562339486112,0.20716043183456875,0.7895306626344083,51.72774636115786,66.4971901156484,-146.4998764628818,0.55126953125,0.55560302734375,0.26568603515625,-0.5628662109375,52.39790416736626,66.6917726379391,-55.311659635683526,1.0205704151410473,,,,3,0,3,3
1788937870.0255718,3131527296.0,-8.54296875,3.01953125,2.41796875,-0.166015625,0.068359375,0.005859375,22.4375,-16.8125,-35.8125,22.4375,-16.8125,-35.8125,0.01188241267948614,-0.5776483891782502,0.20676034525641038,0.789576662761848,51.68563402648578,66.50703080414071,-146.48566474177704,0.55126953125,0.55560302734375,0.26568603515625,-0.5628662109375,52.39790416736626,66.6917726379391,-55.311659635683526,0.9992857664545524,,,,3,0,2,3
1788937870.0255718,3131530903.0,-8.54296875,3.05859375,2.37890625,-0.177734375,0.072265625,0.009765625,22.4375,-16.8125,-35.8125,22.4375,-16.8125,-35.8125,0.01160403172762283,-0.5777359771595818,0.2063884091796718,0.7896140270406876,51.65130302314046,66.51533112557603,-146.46521752663088,0.5516357421875,0.55535888671875,0.266357421875,-0.56243896484375,52.38310217914237,66.71871068721832,-55.226507900575406,0.969434220073051,,,,3,0,2,3
1788937870.018801,3131534685.0,-8.5078125,3.05859375,2.37890625,-0.201171875,0.08203125,0.013671875,22.75,-18.25,-35.875,22.75,-18.25,-35.875,0.0112270783021931,-0.5777729146316054,0.20610105923425448,0.7896675029488135,51.63446841221171,66.5093042390821,-146.4265810884695,0.5516357421875,0.55535888671875,0.266357421875,-0.56243896484375,52.38310217914237,66.71871068721832,-55.226507900575406,0.9422231857629045,,,,3,0,2,3
1788937870.0255718,3131539168.0,-8.5078125,3.05859375,2.37890625,-0.22265625,0.09375,0.017578125,22.75,-18.25,-35.875,22.75,-18.25,-35.875,0.01073824067859491,-0.5778345005358649,0.20573546291353575,0.789724571909314,51.617435907137,66.50267370210435,-146.37223379720297,0.5521240234375,0.5550537109375,0.26715087890625,-0.5618896484375,52.36764524839459,66.74528247350138,-55.1160034595106,0.9360534628126842,,,,3,0,2,3
1788937870.0410526,3131542345.0,-8.5078125,3.05859375,2.37890625,-0.22265625,0.09375,0.017578125,22.75,-18.25,-35.875,22.75,-18.25,-35.875,0.010390489986305823,-0.5778766998084911,0.20548352554031357,0.7897639383181628,51.60680380206992,66.49747569508457,-146.33278877964807,0.5521240234375,0.5550537109375,0.26715087890625,-0.5618896484375,52.36764524839459,66.74528247350138,-55.1160034595106,0.9094341512099277,,,,3,0,2,3
1788937870.042361,3131546528.0,-8.51171875,3.05859375,2.3046875,-0.236328125,0.1015625,0.021484375,22.4375,-18.8125,-36.3125,22.4375,-18.8125,-36.3125,0.00990303522364994,-0.577992688401643,0.2052833368355527,0.7897373827198896,51.639345850519504,66.49003685487514,-146.2428764024503,0.5521240234375,0.5550537109375,0.26715087890625,-0.5618896484375,52.36764524839459,66.74528247350138,-55.1160034595106,0.8697407968188802,,,,3,0,2,3
1788937870.042361,3131551210.0,-8.5078125,2.9453125,2.3046875,-0.25,0.111328125,0.021484375,22.4375,-18.8125,-36.3125,22.4375,-18.8125,-36.3125,0.009358487108219682,-0.5781221012318901,0.20504469652824336,0.7897112935826042,51.67232354678049,66.48231053418961,-146.14453639207719,0.55267333984375,0.55474853515625,0.26806640625,-0.56121826171875,52.367299940413524,66.7768841159247,-54.971838994935915,0.8797709024641317,,,,3,0,2,3
1788937870.042361,3131554793.0,-8.5078125,2.90625,2.33984375,-0.248046875,0.123046875,0.025390625,22.75,-14.9375,-35.5,22.75,-14.9375,-35.5,0.009011620363102968,-0.5783088226864662,0.204563137672808,0.7897035006930642,51.64391195275896,66.50169843136574,-146.1029193068876,0.55267333984375,0.55474853515625,0.26806640625,-0.56121826171875,52.367299940413524,66.7768841159247,-54.971838994935915,0.8434625119672583,,,,3,0,2,3
1788937870.042361,3131559146.0,-8.578125,2.8671875,2.3046875,-0.248046875,0.123046875,0.025390625,22.75,-14.9375,-35.5,22.75,-14.9375,-35.5,0.008600105030152348,-0.578549251772518,0.2039722070377442,0.7896848360093295,51.61032327035197,66.52752190290694,-146.05170890934633,0.55267333984375,0.55474853515625,0.26806640625,-0.56121826171875,52.367299940413524,66.7768841159247,-54.971838994935915,0.8053223657432793,,,,3,0,2,3
1788937870.059482,3131562076.0,-8.65625,2.8671875,2.3046875,-0.248046875,0.13671875,0.025390625,22.75,-14.9375,-35.5,22.75,-14.9375,-35.5,0.008321507718217477,-0.5787301190109252,0.2035735305211775,0.7896581662529927,51.59218081637571,66.54687690255572,-146.01250849274533,0.55322265625,0.554443359375,0.26904296875,-0.5604248046875,52.37486557484932,66.79907139167575,-54.78616467157922,1.4214903811836084,,,,3,0,2,3
1788937870.059482,3131566059.0,-8.66015625,2.9453125,2.3046875,-0.240234375,0.15625,0.0234375,18.9375,-16.375,-31.1875,18.9375,-16.375,-31.1875,0.007956091525251258,-0.5789805139198321,0.20338931086418383,0.7895258408278741,51.64733420861744,66.55991092455463,-145.9109112177622,0.55322265625,0.554443359375,0.26904296875,-0.5604248046875,52.37486557484932,66.79907139167575,-54.78616467157922,1.3962102363068871,,,,3,0,3,3
1788937870.059482,3131570542.0,-8.73828125,2.90625,2.2265625,-0.23046875,0.171875,0.015625,18.9375,-16.375,-31.1875,18.9375,-16.375,-31.1875,0.007596697644398012,-0.579367500113642,0.20310109808426205,0.7893196652522575,51.710724908440795,66.59184904813964,-145.79227601613766,0.55377197265625,0.55426025390625,0.27008056640625,-0.55963134765625,52.427954096736315,66.8514797853963,-54.59723786923767,1.0211390644292468,,,,3,0,3,3
1788937870.0755048,3131574125.0,-8.8515625,2.90625,2.2265625,-0.2421875,0.17578125,0.005859375,19.6875,-16.75,-30.375,19.6875,-16.75,-30.375,0.00731093178132238,-0.5796699053143557,0.20286733934658677,0.7891604360177792,51.759085604585934,66.6168538387309,-145.699625101532,0.55377197265625,0.55426025390625,0.27008056640625,-0.55963134765625,52.427954096736315,66.8514797853963,-54.59723786923767,0.9857608401110617,,,,3,0,3,3
1788937870.0755048,3131578401.0,-8.890625,2.828125,2.265625,-0.2421875,0.17578125,0.005859375,19.6875,-16.75,-30.375,19.6875,-16.75,-30.375,0.007017469657521122,-0.5800359087037034,0.20255913592260277,0.7889733177922834,51.80677227083831,66.65112220438482,-145.6004869240594,0.55377197265625,0.55426025390625,0.27008056640625,-0.55963134765625,52.427954096736315,66.8514797853963,-54.59723786923767,0.9491106997861042,,,,3,0,3,3
1788937870.0755048,3131582007.0,-8.9296875,2.75390625,2.2265625,-0.244140625,0.1875,-0.0078125,19.6875,-16.75,-30.375,19.6875,-16.75,-30.375,0.006796105128593895,-0.5803808120841416,0.20224654777669712,0.7888017874168655,51.84126007004229,66.68746477026873,-145.52016086448901,0.55419921875,0.55413818359375,0.271240234375,-0.558837890625,52.49486849594405,66.92448544583272,-54.39818386309161,0.0,,,,3,0,3,3
1788937870.086541,3131586367.0,-8.93359375,2.71484375,2.265625,-0.23828125,0.201171875,-0.0234375,20.3125,-16.3125,-30.25,20.3125,-16.3125,-30.25,0.006591876820239627,-0.5808380467889861,0.20175389505147798,0.7885930993826281,51.86048673259171,66.74396475691064,-145.44084094326692,0.55419921875,0.55413818359375,0.271240234375,-0.558837890625,52.49486849594405,66.92448544583272,-54.39818386309161,0.0,,,,3,0,3,3
1788937870.0895636,3131589873.0,-8.9609375,2.71484375,2.1875,-0.236328125,0.19921875,-0.03125,20.3125,-16.3125,-30.25,20.3125,-16.3125,-30.25,0.0064163503117617695,-0.5812157908685739,0.20137594935429776,0.7884128118665691,51.88386072349721,66.78906663096306,-145.3697480802678,0.55450439453125,0.553955078125,0.27252197265625,-0.5579833984375,52.535553678442106,66.98825477656462,-54.17235223873113,1.2814044650243552,,,,3,0,3,3
1788937870.0903203,3131593903.0,-9.0,2.63671875,2.1875,-0.236328125,0.19921875,-0.03125,20.3125,-16.3125,-30.25,20.3125,-16.3125,-30.25,0.00622756640764739,-0.581647031877197,0.20091755340538645,0.7882132227124075,51.90358518247301,66.84234252023975,-145.29422588379938,0.55450439453125,0.553955078125,0.27252197265625,-0.5579833984375,52.535553678442106,66.98825477656462,-54.17235223873113,1.2530491042298457,,,,3,0,3,3
1788937870.0922735,3131597609.0,-9.04296875,2.67578125,2.1875,-0.220703125,0.201171875,-0.041015625,20.6875,-16.25,-29.875,20.6875,-16.25,-29.875,0.00607841496094085,-0.5820511598613151,0.200520799896939,0.7880170740436736,51.92681324424302,66.89251000083408,-145.2237848482337,0.55450439453125,0.553955078125,0.27252197265625,-0.5579833984375,52.535553678442106,66.98825477656462,-54.17235223873113,1.231694871920555,,,,3,0,3,3
1788937870.0900166,3131601515.0,-9.12109375,2.67578125,2.1875,-0.197265625,0.19140625,-0.052734375,20.6875,-16.25,-29.875,20.6875,-16.25,-29.875,0.005969012681986928,-0.5824664055167104,0.20012620843783008,0.7878113721115884,51.94929299490547,66.94603493391382,-145.15750872632782,0.55474853515625,0.55389404296875,0.27374267578125,-0.5572509765625,52.60761017164575,67.0775240650067,-53.97648848683973,0.9645384702669061,,,,3,0,3,3
1788937870.0922735,3131605198.0,-9.08203125,2.67578125,2.1875,-0.17578125,0.18359375,-0.0625,19.375,-16.25,-30.4375,19.375,-16.25,-30.4375,0.0059094177417660775,-0.582844422467834,0.1997940899359709,0.7876165181144614,51.97188518959759,66.99593398045648,-145.10063375319532,0.55474853515625,0.55389404296875,0.27374267578125,-0.5572509765625,52.60761017164575,67.0775240650067,-53.97648848683973,0.9428290722675837,,,,3,0,3,3
1788937870.1084557,3131610081.0,-9.15625,2.71484375,2.2265625,-0.16796875,0.16015625,-0.080078125,19.375,-16.25,-30.4375,19.375,-16.25,-30.4375,0.005892400219638864,-0.5833033849285082,0.19935320622892877,0.7873885571411628,51.985264057394,67.0612697738501,-145.04698026829746,0.5548095703125,0.55377197265625,0.27496337890625,-0.55670166015625,52.63205792443891,67.17237151008433,-53.831661520842324,1.0508856894542822,,,,3,0,3,3
1788937870.1065025,3131613134.0,-9.1171875,2.75390625,2.1875,-0.16796875,0.16015625,-0.080078125,19.375,-16.25,-30.4375,19.375,-16.25,-30.4375,0.005865261140672133,-0.5835898977719424,0.19910135974839865,0.7872401656906386,52.00079367453417,67.10014326871942,-145.00694914643046,0.5548095703125,0.55377197265625,0.27496337890625,-0.55670166015625,52.63205792443891,67.17237151008433,-53.831661520842324,1.0364333880227554,,,,3,0,3,3
1788937870.1070895,3131617140.0,-9.1171875,2.75390625,2.1875,-0.154296875,0.146484375,-0.083984375,20.375,-15.6875,-32.25,20.375,-15.6875,-32.25,0.005840009684581118,-0.5839586272722643,0.19862726731877248,0.7870866690515432,51.985993683751445,67.15700105071325,-144.97829338302026,0.5548095703125,0.55377197265625,0.27496337890625,-0.55670166015625,52.63205792443891,67.17237151008433,-53.831661520842324,1.0224082082008759,,,,3,0,3,3
1788937870.1140556,3131621046.0,-9.1171875,2.7890625,2.265625,-0.15234375,0.130859375,-0.09765625,20.375,-15.6875,-32.25,20.375,-15.6875,-32.25,0.00584975804644357,-0.5842809248749058,0.19813055201715868,0.7869725951489661,51.95108818371615,67.21198382079493,-144.97084901026128,0.5548095703125,0.55364990234375,0.27606201171875,-0.55633544921875,52.638799042269554,67.2726579206488,-53.74288296677475,0.5385149806269031,,,,3,0,3,3
1788937870.1242468,3131624729.0,-9.12109375,2.7890625,2.2265625,-0.15625,0.109375,-0.087890625,23.3125,-14.5,-35.75,23.3125,-14.5,-35.75,0.0057894195209570246,-0.5845255454738095,0.19763895450188204,0.7869149972986655,51.905841747649546,67.25463702881443,-144.96869933227165,0.5548095703125,0.55364990234375,0.27606201171875,-0.55633544921875,52.638799042269554,67.2726579206488,-53.74288296677475,0.5162054768351256,,,,3,0,2,3
1788937870.1250932,3131629212.0,-9.12109375,2.828125,2.2265625,-0.162109375,0.095703125,-0.09765625,23.3125,-14.5,-35.75,23.3125,-14.5,-35.75,0.005725613890466874,-0.5848036691963835,0.19701681952893033,0.7868648287112147,51.83948915072289,67.30606921623342,-144.9762124981014,0.5548095703125,0.55340576171875,0.27703857421875,-0.5560302734375,52.59533800417263,67.3430847517091,-53.67800691429372,1.1059062101289014,,,,3,0,2,3
1788937870.1191688,3131632589.0,-9.1171875,2.7890625,2.265625,-0.162109375,0.095703125,-0.09765625,23.3125,-14.5,-35.75,23.3125,-14.5,-35.75,0.005680593684120779,-0.5850063000233408,0.196548175578746,0.7868317319891613,51.78744280473564,67.34428101297179,-144.98421819557038,0.5548095703125,0.55340576171875,0.27703857421875,-0.5560302734375,52.59533800417263,67.3430847517091,-53.67800691429372,1.0989605026512321,,,,3,0,2,3
1788937870.1250932,3131636371.0,-9.078125,2.7890625,2.265625,-0.17578125,0.07421875,-0.09375,22.8125,-16.1875,-37.375,22.8125,-16.1875,-37.375,0.005624838957815863,-0.5852050973722147,0.19600701312059454,0.7868192969188151,51.7190395653302,67.38451800766575,-145.00157817327155,0.5548095703125,0.55340576171875,0.27703857421875,-0.5560302734375,52.59533800417263,67.3430847517091,-53.67800691429372,1.0957647902658365,,,,3,0,2,3
1788937870.1250932,3131641254.0,-9.078125,2.7890625,2.3046875,-0.181640625,0.05859375,-0.0859375,22.8125,-16.1875,-37.375,22.8125,-16.1875,-37.375,0.005535535238678246,-0.58541399571847,0.19530801878190976,0.7868383501495347,51.62065767051066,67.43049663573402,-145.0327798686525,0.554931640625,0.552978515625,0.27801513671875,-0.55584716796875,52.49185944839502,67.41366956380088,-53.67888842135509,1.0995035113853404,,,,3,0,2,3
1788937870.1420577,3131644837.0,-9.04296875,2.7890625,2.33984375,-0.1875,0.052734375,-0.06640625,22.6875,-14.5,-35.8125,22.6875,-14.5,-35.8125,0.005425867311846712,-0.5855404737091059,0.1948093827745866,0.7868686154596679,51.549846025272295,67.45831396594588,-145.05198665306196,0.554931640625,0.552978515625,0.27801513671875,-0.55584716796875,52.49185944839502,67.41366956380088,-53.67888842135509,1.0956021124802906,,,,3,0,2,3
1788937870.1420577,3131648990.0,-8.9609375,2.75390625,2.37890625,-0.1875,0.052734375,-0.06640625,22.6875,-14.5,-35.8125,22.6875,-14.5,-35.8125,0.005298988362522022,-0.5856743221666221,0.1942354539500078,0.786911746961396,51.46545652699644,67.48906963197388,-145.07697280212108,0.554931640625,0.552978515625,0.27801513671875,-0.55584716796875,52.49185944839502,67.41366956380088,-53.67888842135509,1.0955779403296524,,,,3,0,2,3
1788937870.1420577,3131652896.0,-8.9609375,2.71484375,2.41796875,-0.205078125,0.0390625,-0.052734375,22.6875,-14.5,-35.8125,22.6875,-14.5,-35.8125,0.0051476727975472035,-0.5857676011486695,0.1936867321572188,0.7869785694004382,51.37945087663524,67.51312471215192,-145.10384434126917,0.55517578125,0.552490234375,0.27886962890625,-0.5556640625,52.37475088101152,67.46435301408954,-53.69095711418248,1.080810201295694,,,,3,0,2,3
1788937870.1420577,3131656479.0,-8.9296875,2.71484375,2.41796875,-0.203125,0.03515625,-0.037109375,23.125,-16.8125,-35.3125,23.125,-16.8125,-35.3125,0.005027153363652749,-0.585812110823426,0.1932231137966209,0.7870601799331475,51.297488070718835,67.53025735607919,-145.1365554375451,0.55517578125,0.552490234375,0.27886962890625,-0.5556640625,52.37475088101152,67.46435301408954,-53.69095711418248,1.0824234526182932,,,,3,0,2,3
1788937870.1588345,3131660385.0,-8.93359375,2.67578125,2.41796875,-0.208984375,0.029296875,-0.015625,23.125,-16.8125,-35.3125,23.125,-16.8125,-35.3125,0.004867463359216307,-0.585848554696119,0.19273132349935196,0.7871546326504745,51.211363906086405,67.54548401802396,-145.16786824931518,0.55560302734375,0.552001953125,0.27960205078125,-0.55535888671875,52.278654052451294,67.49017127795561,-53.672338626482905,1.072721975350629,,,,3,0,2,3
1788937870.1568596,3131663968.0,-8.890625,2.59765625,2.45703125,-0.21875,0.029296875,0.0078125,19.8125,-15.5625,-31.625,19.8125,-15.5625,-31.625,0.0047158694636379485,-0.5858440896174498,0.1923335076010483,0.787256175008733,51.13580641038093,67.55294972720841,-145.19736040336448,0.55560302734375,0.552001953125,0.27960205078125,-0.55535888671875,52.278654052451294,67.49017127795561,-53.672338626482905,1.0721492697753712,,,,3,0,3,3
1788937870.1588345,3131668045.0,-8.85546875,2.5625,2.41796875,-0.21875,0.029296875,0.0078125,19.8125,-15.5625,-31.625,19.8125,-15.5625,-31.625,0.0045601447630816,-0.5858550152436034,0.19187364161138212,0.7873611698886628,51.0502581989528,67.5643762169493,-145.23121211962524,0.55560302734375,0.552001953125,0.27960205078125,-0.55535888671875,52.278654052451294,67.49017127795561,-53.672338626482905,1.075174106995392,,,,3,0,3,3
1788937870.1588345,3131671851.0,-8.81640625,2.5625,2.45703125,-0.2109375,0.029296875,0.03125,19.8125,-15.5625,-31.625,19.8125,-15.5625,-31.625,0.0043729886576569146,-0.5858348258421063,0.1914973387171484,0.7874688584731453,50.979719169773794,67.5672695126944,-145.25465140334018,0.55615234375,0.551513671875,0.2802734375,-0.554931640625,52.1994936731302,67.49621225741313,-53.61908373205913,1.2537603129272794,,,,3,0,3,3
1788937870.1754959,3131676210.0,-8.7734375,2.5625,2.45703125,-0.205078125,0.03125,0.04296875,19.875,-13.5,-30.75,19.875,-13.5,-30.75,0.004068885893209785,-0.5858578046815109,0.19102230942325799,0.787568761546542,50.9101424071622,67.5722117815336,-145.2590790552353,0.55615234375,0.551513671875,0.2802734375,-0.554931640625,52.1994936731302,67.49621225741313,-53.61908373205913,1.2460806811708163,,,,3,0,3,3
1788937870.1754959,3131679717.0,-8.81640625,2.5625,2.41796875,-0.19140625,0.0390625,0.052734375,19.875,-13.5,-30.75,19.875,-13.5,-30.75,0.003826617152223882,-0.5858942927498838,0.19066276600326487,0.7876299539658634,50.86354354498521,67.57729873743509,-145.25532461612315,0.55682373046875,0.55108642578125,0.28082275390625,-0.554443359375,52.154493038559146,67.49257990219144,-53.54821300134927,1.0347188403745862,,,,3,0,3,3
1788937870.1798866,3131683746.0,-8.7734375,2.5625,2.33984375,-0.19140625,0.0390625,0.052734375,19.875,-13.5,-30.75,19.875,-13.5,-30.75,0.00355068289196832,-0.5859533775987473,0.19024176828573924,0.7876890893818039,50.812166096325605,67.58543625028634,-145.24833239953063,0.55682373046875,0.55108642578125,0.28082275390625,-0.554443359375,52.154493038559146,67.49257990219144,-53.54821300134927,1.023743620661791,,,,3,0,3,3
1788937870.1838217,3131688129.0,-8.81640625,2.5625,2.33984375,-0.19140625,0.03515625,0.0703125,20.625,-15.875,-30.5625,20.625,-15.875,-30.5625,0.0033830980878094205,-0.5859739174309058,0.19003390415656662,0.787724722227898,50.788187592322494,67.5867808544031,-145.2409534167505,0.55682373046875,0.55108642578125,0.28082275390625,-0.554443359375,52.154493038559146,67.49257990219144,-53.54821300134927,1.017316425133641,,,,3,0,3,3
1788937870.190436,3131691259.0,-8.81640625,2.5625,2.37890625,-0.1796875,0.03125,0.07421875,20.625,-15.875,-30.5625,20.625,-15.875,-30.5625,0.0032670808708001177,-0.585956281998931,0.18989940892065785,0.787770763775959,50.76593776674432,67.58395589040911,-145.24238490254308,0.55743408203125,0.55078125,0.28125,-0.55389404296875,52.14717751213226,67.47396959345024,-53.43863755864512,1.210894946203241,,,,3,0,3,3
1788937870.1943724,3131695142.0,-8.81640625,2.5234375,2.3046875,-0.1796875,0.033203125,0.080078125,20.25,-15.375,-30.5,20.25,-15.375,-30.5,0.003104455437105336,-0.5860101283954866,0.18964649289086175,0.7877922946491294,50.7392621468739,67.59097923382939,-145.23420299806813,0.55743408203125,0.55078125,0.28125,-0.55389404296875,52.14717751213226,67.47396959345024,-53.43863755864512,1.2046615044912672,,,,3,0,3,3
1788937870.1995244,3131699925.0,-8.7734375,2.484375,2.3046875,-0.166015625,0.037109375,0.072265625,20.25,-15.375,-30.5,20.25,-15.375,-30.5,0.002934880368389657,-0.5860795601536455,0.18933916529763412,0.787815216996808,50.70471285309602,67.60152370097148,-145.22868162665353,0.55810546875,0.55047607421875,0.2816162109375,-0.5533447265625,52.14426391058579,67.4505877553882,-53.333147240794304,1.1943246065147954,,,,3,0,3,3
1788937870.1985886,3131703954.0,-8.6953125,2.484375,2.41796875,-0.166015625,0.037109375,0.072265625,20.25,-15.375,-30.5,20.25,-15.375,-30.5,0.002753013130507367,-0.586052019924726,0.18908731279038027,0.7878968454071666,50.660489505464696,67.59882148552659,-145.23680549568098,0.55810546875,0.55047607421875,0.2816162109375,-0.5533447265625,52.14426391058579,67.4505877553882,-53.333147240794304,1.1889627518368118,,,,3,0,3,3
1788937870.2005417,3131707860.0,-8.66015625,2.5234375,2.41796875,-0.16796875,0.04296875,0.06640625,19.9375,-15.875,-30.625,19.9375,-15.875,-30.625,0.0025851639540960913,-0.5860030937783233,0.18896118871336212,0.787964060201731,50.63832749400516,67.58943419533888,-145.2347087958852,0.55810546875,0.55047607421875,0.2816162109375,-0.5533447265625,52.14426391058579,67.4505877553882,-53.333147240794304,1.1819158191532668,,,,3,0,3,3
1788937870.2094662,3131710890.0,-8.65625,2.5234375,2.265625,-0.171875,0.05078125,0.05859375,19.9375,-15.875,-30.625,19.9375,-15.875,-30.625,0.002463212065939503,-0.5860556350494254,0.18888180231540233,0.7879444079167123,50.64663483329663,67.59143117578817,-145.2095545296558,0.55865478515625,0.55023193359375,0.28204345703125,-0.55279541015625,52.15317345650663,67.43745349194043,-53.215081661595036,1.3392320835773799,,,,3,0,3,3
1788937870.2094662,3131715550.0,-8.6953125,2.5234375,2.33984375,-0.158203125,0.0546875,0.046875,20.5,-16.0,-31.1875,20.5,-16.0,-31.1875,0.002360458148118917,-0.5860944693238387,0.18870294149710842,0.7879586925313266,50.626624231688155,67.59718562651383,-145.20592032800275,0.55865478515625,0.55023193359375,0.28204345703125,-0.55279541015625,52.15317345650663,67.43745349194043,-53.215081661595036,1.3352256302324435,,,,3,0,3,3
1788937870.2094662,3131719056.0,-8.6953125,2.5234375,2.33984375,-0.138671875,0.056640625,0.03125,20.5,-16.0,-31.1875,20.5,-16.0,-31.1875,0.002323011129981184,-0.5861310959499167,0.18858412505312033,0.7879600051765244,50.61253997498667,67.6038877789938,-145.20678845408298,0.55914306640625,0.54998779296875,0.282470703125,-0.55230712890625,52.15291904419386,67.42942092467362,-53.11345391273598,1.477922322771497,,,,3,0,3,3
1788937870.2094662,3131723209.0,-8.734375,2.4453125,2.33984375,-0.138671875,0.056640625,0.03125,20.5,-16.0,-31.1875,20.5,-16.0,-31.1875,0.0022869582908508594,-0.5862047506660606,0.1883743035032197,0.7879555075624477,50.58649589486123,67.61836523277906,-145.211930694083,0.55914306640625,0.54998779296875,0.282470703125,-0.55230712890625,52.15291904419386,67.42942092467362,-53.11345391273598,1.4781351498076194,,,,3,0,3,3
1788937870.2251396,3131727192.0,-8.7734375,2.4453125,2.33984375,-0.109375,0.0625,0.017578125,22.75,-15.875,-35.625,22.75,-15.875,-35.625,0.002183396399645689,-0.5863164447832525,0.18805044531427004,0.7879500551265887,50.55117032791687,67.6378135024058,-145.21108198320275,0.55914306640625,0.54998779296875,0.282470703125,-0.55230712890625,52.15291904419386,67.42942092467362,-53.11345391273598,1.4758357075665345,,,,3,0,2,3
1788937870.2260065,3131731098.0,-8.77734375,2.40625,2.45703125,-0.091796875,0.072265625,0.009765625,22.75,-15.875,-35.625,22.75,-15.875,-35.625,0.0021054228584573304,-0.5864150106316088,0.18776318517711144,0.7879454224707844,50.51814689028235,67.65579566634965,-145.21316056252348,0.5594482421875,0.5499267578125,0.282958984375,-0.55194091796875,52.196296728647944,67.46655182850286,-53.03119547369652,0.5980136365115695,,,,3,0,2,3
1788937870.2260065,3131734681.0,-8.77734375,2.4453125,2.609375,-0.083984375,0.072265625,0.01953125,23.0625,-16.8125,-35.625,23.0625,-16.8125,-35.625,0.002028173028649941,-0.5864570593640532,0.18756363926197564,0.7879618552081291,50.4913092572408,67.66419472481005,-145.216691034631,0.5594482421875,0.5499267578125,0.282958984375,-0.55194091796875,52.196296728647944,67.46655182850286,-53.03119547369652,0.5943162506016342,,,,3,0,2,3
1788937870.2260065,3131738834.0,-8.77734375,2.4453125,2.609375,-0.083984375,0.072265625,0.01953125,23.0625,-16.8125,-35.625,23.0625,-16.8125,-35.625,0.0019388786787056613,-0.5865050025795602,0.18733338786016607,0.7879811701376195,50.46021571175643,67.67381877879612,-145.22088144005883,0.5594482421875,0.5499267578125,0.282958984375,-0.55194091796875,52.196296728647944,67.46655182850286,-53.03119547369652,0.5913580791364091,,,,3,0,2,3
1788937870.2404299,3131742740.0,-8.8515625,2.4453125,2.609375,-0.08203125,0.09375,0.033203125,23.0625,-16.8125,-35.625,23.0625,-16.8125,-35.625,0.001834150242189105,-0.5865830444263487,0.1871310353510643,0.7879714103270778,50.444675759332966,67.68461448232352,-145.2105275015289,0.5595703125,0.5499267578125,0.2833251953125,-0.551513671875,52.24274375138663,67.46789973322471,-52.90099560869865,1.4518722267064395,,,,3,0,2,3
1788937870.2421825,3131746200.0,-8.8515625,2.40625,2.5703125,-0.080078125,0.099609375,0.046875,23.4375,-15.875,-35.5,23.4375,-15.875,-35.5,0.0017116954021980176,-0.5866803719881041,0.18694008103787071,0.7879445521889876,50.43851248736701,67.69599242576962,-145.1902555034094,0.5595703125,0.5499267578125,0.2833251953125,-0.551513671875,52.24274375138663,67.46789973322471,-52.90099560869865,1.444949691430014,,,,3,0,2,3
1788937870.2402294,3131753812.0,-8.9296875,2.4453125,2.5703125,-0.025390625,0.1171875,0.08203125,23.4375,-15.875,-35.5,23.4375,-15.875,-35.5,0.0014469749998388722,-0.5869255349315832,0.18675940643660982,0.787805335610308,50.48723115927416,67.71463441809836,-145.1039056996518,0.55975341796875,0.550048828125,0.28369140625,-0.551025390625,52.342990110112865,67.48453538294105,-52.74834509560455,1.4271465717517355,,,,3,0,2,3
1788937870.2587926,3131764054.0,-9.00390625,2.5625,2.609375,0.00390625,0.119140625,0.130859375,23.5625,-14.6875,-34.0625,23.5625,-14.6875,-34.0625,0.000920731662306616,-0.5872171752434565,0.18677152243034192,0.7875858935769189,50.621405263165215,67.71542792598254,-144.92685594534353,0.5599365234375,0.5504150390625,0.28387451171875,-0.5504150390625,52.5322387777316,67.49061618597828,-52.5322387777316,1.2434219116354017,,,,3,0,2,3
1788937870.2734694,3131774020.0,-9.08203125,2.59765625,2.53125,0.013671875,0.119140625,0.154296875,19.625,-15.875,-30.6875,19.625,-15.875,-30.6875,0.0006129249294905875,-0.5873219753607893,0.18747426569344364,0.7873410450903949,50.8432042088195,67.67969890914935,-144.73893971356011,0.56011962890625,0.55096435546875,0.2838134765625,-0.5496826171875,52.785820095618696,67.4656673771818,-52.254255437065275,1.4244599477670743,,,,3,0,3,3
1788937870.2714875,3131783056.0,-9.078125,2.71484375,2.49609375,0.05078125,0.115234375,0.19921875,20.5625,-15.9375,-30.875,20.5625,-15.9375,-30.875,0.00019848779731259476,-0.5873369224846477,0.18844060948656927,0.7870993817715699,51.11424119639992,67.61712107954656,-144.51560753501286,0.560302734375,0.5516357421875,0.28363037109375,-0.5489501953125,53.07903081301971,67.4400837705497,-51.966712419469836,1.2691942322557181,,,,3,0,3,3
