pc_unix,dev_us,ax,ay,az,gx,gy,gz,mx_raw,my_raw,mz_raw,mx,my,mz,host_qw,host_qx,host_qy,host_qz,host_roll,host_pitch,host_yaw,chip_qw,chip_qx,chip_qy,chip_qz,chip_roll,chip_pitch,chip_yaw,diff_deg,rel_roll,rel_pitch,rel_yaw,cal_acc,cal_gyr,cal_mag,cal_rv
1788937616.3881223,2877891431.0,-9.55859375,0.703125,-0.03515625,-0.029296875,0.013671875,-0.03125,28.4375,-2.125,-24.4375,28.4375,-2.125,-24.4375,0.0024564577762277986,-0.7058105745983607,0.05399834193399661,0.7063353153203544,91.70605264251785,85.82249836982719,-92.87265299114829,0.49688720703125,0.53924560546875,0.4588623046875,-0.50177001953125,92.03626687576842,85.68096891594968,-2.8624213333790083,0.792798734441134,,,,3,0,3,3
1788937616.4036138,2877898943.0,-9.5546875,0.703125,-0.07421875,-0.029296875,0.00390625,-0.00390625,29.125,-4.5625,-24.625,29.125,-4.5625,-24.625,0.002354354270094399,-0.7059090143065605,0.05421403736722806,0.7062207577585468,91.94956319048224,85.79687098812154,-92.63839767158234,0.49688720703125,0.53912353515625,0.4591064453125,-0.501708984375,92.18560277512445,85.72248503776156,-2.7133958294360245,0.4074161987436711,,,,3,0,3,3
1788937616.4047754,2877903096.0,-9.515625,0.73828125,-0.07421875,-0.029296875,0.00390625,-0.00390625,29.125,-4.5625,-24.625,29.125,-4.5625,-24.625,0.0022700516973255787,-0.7059536942319748,0.05434035393018301,0.7061666619150618,92.06135907211569,85.77983396924778,-92.53003625858543,0.49688720703125,0.53912353515625,0.4591064453125,-0.501708984375,92.18560277512445,85.72248503776156,-2.7133958294360245,0.39061824036957477,,,,3,0,3,3
1788937616.4115624,2877907056.0,-9.55859375,0.73828125,-0.03515625,-0.025390625,0.00390625,0.0078125,29.25,-3.9375,-23.875,29.25,-3.9375,-23.875,0.0020686569457460382,-0.7060074755631931,0.05421977888820418,0.7061227801768203,92.15595973151976,85.77330579936685,-92.40931792241521,0.4969482421875,0.53900146484375,0.45916748046875,-0.50164794921875,92.0721289747963,85.6678494544171,-2.748732898014088,1.0730401306341077,,,,3,0,3,3
1788937616.4147768,2877911162.0,-9.51953125,0.73828125,-0.11328125,-0.03515625,-0.00390625,0.0234375,29.25,-3.9375,-23.875,29.25,-3.9375,-23.875,0.0019473989632869243,-0.7061020959827174,0.05419441324351842,0.7060304549091929,92.35525932368611,85.76553684478546,-92.1981315476117,0.4969482421875,0.53900146484375,0.45916748046875,-0.50164794921875,92.0721289747963,85.6678494544171,-2.748732898014088,1.0745370856788599,,,,3,0,3,3
1788937616.4208555,2877918521.0,-9.63671875,0.703125,-0.07421875,-0.029296875,-0.00390625,0.037109375,28.6875,-1.5,-29.0,28.6875,-1.5,-29.0,0.0017770451418014713,-0.7061241916194174,0.05384939227838935,0.7060352052636159,92.35368708465786,85.77969730952911,-92.15786193219569,0.4970703125,0.53900146484375,0.459228515625,-0.50152587890625,92.15239248454174,85.69920289479462,-2.6946901811385846,0.6813493676491682,,,,3,0,3,3
1788937616.421774,2877922828.0,-9.63671875,0.6640625,-0.07421875,-0.041015625,-0.005859375,0.048828125,28.6875,-1.5,-29.0,28.6875,-1.5,-29.0,0.0016496631462000768,-0.7061326531924185,0.053647579157428404,0.7060424151263769,92.34184569908898,85.78573225254351,-92.14298176215269,0.4970703125,0.53900146484375,0.459228515625,-0.50152587890625,92.15239248454174,85.69920289479462,-2.6946901811385846,0.6972079232487844,,,,3,0,3,3
1788937616.4310796,2877926287.0,-9.67578125,0.625,-0.15234375,-0.04296875,0.0,0.06640625,32.75,-4.3125,-30.75,32.75,-4.3125,-30.75,0.001561981364888996,-0.7061942602226166,0.053559087976773896,0.7059877131635814,92.46285957810697,85.78577096737443,-92.00767223093014,0.497314453125,0.53900146484375,0.45916748046875,-0.50128173828125,92.05215069731916,85.62372262422353,-2.724517667696693,1.1258130730369043,,,,3,0,2,3
1788937616.4350953,2877930393.0,-9.75,0.5859375,-0.15234375,-0.03515625,0.001953125,0.064453125,32.75,-4.3125,-30.75,32.75,-4.3125,-30.75,0.0014892932980351268,-0.7062624395766447,0.05345505153902902,0.7059275500458094,92.5973273356869,85.78825856343273,-91.8588606318617,0.497314453125,0.53900146484375,0.45916748046875,-0.50128173828125,92.05215069731916,85.62372262422353,-2.724517667696693,1.1316851221528692,,,,3,0,2,3
1788937616.4429488,2877938582.0,-9.828125,0.625,-0.15234375,-0.0234375,0.0078125,0.080078125,31.75,-4.75,-30.9375,31.75,-4.75,-30.9375,0.0013334126237272222,-0.7064553246271729,0.053484261256744686,0.7057326194207766,93.01691833303056,85.77293227967198,-91.42901290715005,0.49761962890625,0.5390625,0.4591064453125,-0.50103759765625,92.0486439503038,85.63687238019205,-2.7575357829658094,0.6281665921639809,,,,3,0,2,3
1788937616.444902,2877941959.0,-9.90234375,0.625,-0.11328125,-0.0234375,0.0078125,0.080078125,31.75,-4.75,-30.9375,31.75,-4.75,-30.9375,0.0012934318600644206,-0.7065231034694883,0.05347010517485453,0.7056659118523836,93.16197766218532,85.77067344493008,-91.27956389705334,0.49761962890625,0.5390625,0.4591064453125,-0.50103759765625,92.0486439503038,85.63687238019205,-2.7575357829658094,0.6312005584592679,,,,3,0,2,3
1788937616.4495885,2877946595.0,-9.9375,0.6640625,-0.11328125,-0.015625,0.00390625,0.080078125,31.3125,-4.875,-31.6875,31.3125,-4.875,-31.6875,0.0012319845690191942,-0.7066246836724059,0.0535267609107255,0.7055600077281166,93.38691432972935,85.7607894030308,-91.05425258890304,0.49786376953125,0.5391845703125,0.45892333984375,-0.50079345703125,91.97358956122159,85.56286398356062,-2.792462166931058,0.963006572117259,,,,3,0,2,3
1788937616.4550846,2877949725.0,-10.015625,0.703125,-0.07421875,-0.013671875,0.001953125,0.078125,31.3125,-4.875,-31.6875,31.3125,-4.875,-31.6875,0.0012098305957089683,-0.706687228303117,0.053579811243856475,0.7054933745190386,93.52776025481664,85.75446699041584,-90.9159228317503,0.49786376953125,0.5391845703125,0.45892333984375,-0.50079345703125,91.97358956122159,85.56286398356062,-2.792462166931058,0.9609825275938045,,,,3,0,2,3
1788937616.4582336,2877954484.0,-10.015625,0.625,-0.07421875,-0.01953125,-0.005859375,0.068359375,31.3125,-4.875,-31.6875,31.3125,-4.875,-31.6875,0.001237243879426452,-0.7067226403973326,0.05352972465079237,0.7054616554825753,93.60228434722619,85.76062162811425,-90.83955007075599,0.49810791015625,0.539306640625,0.45880126953125,-0.50054931640625,91.98390605603014,85.53437300850555,-2.782306657197251,0.8495706886651897,,,,3,0,2,3
1788937616.4642031,2877958690.0,-10.0546875,0.625,-0.07421875,-0.017578125,-0.01171875,0.0703125,28.4375,-5.0625,-25.0625,28.4375,-5.0625,-25.0625,0.0011787249242293425,-0.7067172926934325,0.05379363526251417,0.7054470381402574,93.61226307574654,85.73446713110594,-90.84627567540217,0.49810791015625,0.539306640625,0.45880126953125,-0.50054931640625,91.98390605603014,85.53437300850555,-2.782306657197251,0.8288600153057234,,,,3,0,3,3
1788937616.4622757,2877963720.0,-10.09765625,0.6640625,-0.07421875,-0.017578125,-0.01171875,0.0703125,28.4375,-5.0625,-25.0625,28.4375,-5.0625,-25.0625,0.001079143373616679,-0.7067072969346534,0.054120235112669564,0.7054322306644659,93.61558588370006,85.69991079895846,-90.86142507173594,0.49810791015625,0.539306640625,0.45880126953125,-0.50054931640625,91.98390605603014,85.53437300850555,-2.782306657197251,0.8036220766108253,,,,3,0,3,3
1788937616.4680712,2877968703.0,-10.015625,0.703125,-0.07421875,-0.017578125,-0.01953125,0.06640625,29.125,-3.5625,-24.5,29.125,-3.5625,-24.5,0.0009966419489588706,-0.7067006575909845,0.05396903475836676,0.7054505868964499,93.58086461893313,85.70552796699377,-90.87717388515335,0.49835205078125,0.53936767578125,0.4586181640625,-0.5003662109375,91.81818804458405,85.46507669562216,-2.905392082320015,1.116513433484087,,,,3,0,3,3
1788937616.4720063,2877969756.0,-10.05859375,0.73828125,-0.11328125,-0.0078125,-0.029296875,0.052734375,29.125,-3.5625,-24.5,29.125,-3.5625,-24.5,0.0009819947377353408,-0.7067044444758864,0.053940351015089025,0.7054490076374995,93.5852662829931,85.70665551779365,-90.8692544107396,0.49835205078125,0.53936767578125,0.4586181640625,-0.5003662109375,91.81818804458405,85.46507669562216,-2.905392082320015,1.1179670569475455,,,,3,0,3,3
1788937616.4746976,2877973785.0,-10.0546875,0.81640625,-0.11328125,-0.0078125,-0.029296875,0.052734375,29.125,-3.5625,-24.5,29.125,-3.5625,-24.5,0.0008478751546489525,-0.7067337073180047,0.05385773149252677,0.7054261781410938,93.63142794171561,85.70237870375044,-90.80551135982147,0.49835205078125,0.53936767578125,0.4586181640625,-0.5003662109375,91.81818804458405,85.46507669562216,-2.905392082320015,1.1215484550652515,,,,3,0,3,3
1788937616.4786592,2877977768.0,-9.98046875,0.81640625,-0.11328125,0.001953125,-0.041015625,0.044921875,29.0625,-4.6875,-25.3125,29.0625,-4.6875,-25.3125,0.0007405001499230688,-0.7067059963843889,0.05409197742630152,0.7054361376566903,93.58711999286102,85.67476020725582,-90.86015480135899,0.49853515625,0.5394287109375,0.45843505859375,-0.50030517578125,91.6590886814359,85.4510499620535,-3.0793462873338004,1.000635518582684,,,,3,0,3,3
1788937616.4816346,2877980898.0,-9.94140625,0.77734375,-0.07421875,-0.009765625,-0.0546875,0.04296875,29.0625,-4.6875,-25.3125,29.0625,-4.6875,-25.3125,0.000659970146436108,-0.7066553157295387,0.05427487272069006,0.7054729388018685,93.49115338320794,85.65356816930867,-90.96445930087712,0.49853515625,0.5394287109375,0.45843505859375,-0.50030517578125,91.6590886814359,85.4510499620535,-3.0793462873338004,0.9870298424159204,,,,3,0,3,3
1788937616.4889662,2877985457.0,-9.86328125,0.81640625,-0.07421875,-0.009765625,-0.056640625,0.044921875,29.0625,-4.6875,-25.3125,29.0625,-4.6875,-25.3125,0.0005114776092615444,-0.7065736928007302,0.05454045111785829,0.705534332420794,93.3346500451928,85.6202387868661,-91.13051344945069,0.498779296875,0.53936767578125,0.45819091796875,-0.50030517578125,91.23299209878006,85.39306749127127,-3.466865207845942,1.2539966565897163,,,,3,0,3,3
1788937616.4889662,2877989764.0,-9.79296875,0.81640625,-0.03515625,-0.009765625,-0.06640625,0.033203125,29.0625,-4.6875,-25.3125,29.0625,-4.6875,-25.3125,0.00038576196278415685,-0.7064526093463683,0.05477959980031205,0.7056371286866451,93.09612885741825,85.59096755479237,-91.37828353514607,0.498779296875,0.53936767578125,0.45819091796875,-0.50030517578125,91.23299209878006,85.39306749127127,-3.466865207845942,1.239164043803117,,,,3,0,3,3
1788937616.4955702,2877993140.0,-9.75390625,0.85546875,-0.03515625,-0.009765625,-0.06640625,0.033203125,29.0625,-4.6875,-25.3125,29.0625,-4.6875,-25.3125,0.00027352621012410357,-0.7063596216635487,0.05496189442050944,0.7057160903851135,92.91424893933603,85.56727308327395,-91.56588453424476,0.498779296875,0.53936767578125,0.45819091796875,-0.50030517578125,91.23299209878006,85.39306749127127,-3.466865207845942,1.228291934545836,,,,3,0,3,3
1788937616.4955702,2877996900.0,-9.75,0.89453125,-0.03515625,-0.015625,-0.068359375,0.033203125,29.5,-5.5,-24.6875,29.5,-5.5,-24.6875,0.00016138595892833133,-0.7062582132701593,0.05516438705548179,0.7058018139278247,92.71916538183001,85.54191314148683,-91.76833886558524,0.49908447265625,0.53924560546875,0.4580078125,-0.5003662109375,90.7986114784645,85.42209816111003,-3.94113569169774,0.7955311390888067,,,,3,0,3,3
1788937616.5047076,2878001006.0,-9.671875,0.89453125,0.00390625,-0.01171875,-0.072265625,0.0390625,29.5,-5.5,-24.6875,29.5,-5.5,-24.6875,3.538490089723499e-05,-0.7061286686441879,0.05539902543526331,0.7059130612529553,92.47131328437722,85.51278830771061,-92.02505176763934,0.49908447265625,0.53924560546875,0.4580078125,-0.5003662109375,90.7986114784645,85.42209816111003,-3.94113569169774,0.7748610361575686,,,,3,0,3,3
1788937616.5089478,2878009095.0,-9.7109375,0.89453125,-0.03515625,-0.0234375,-0.0625,0.037109375,29.1875,-1.0625,-23.5,29.1875,-1.0625,-23.5,-0.00012895058257834837,-0.7059708426535911,0.05503725449286741,0.7060991809318383,92.09353064357288,85.52882036857027,-92.36011517364973,0.4993896484375,0.53912353515625,0.457763671875,-0.50042724609375,90.28788756685849,85.40730136094646,-4.4530230304058716,0.7152802992046059,,,,3,0,3,3
1788937616.5186164,2878013654.0,-9.63671875,0.9296875,0.078125,-0.025390625,-0.05859375,0.03515625,29.1875,-1.0625,-23.5,29.1875,-1.0625,-23.5,-0.00023998800201088992,-0.7058548712828853,0.054821300988087525,0.7062318798029115,91.82124662480818,85.53723546489849,-92.60585083132034,0.49969482421875,0.53900146484375,0.45758056640625,-0.50042724609375,89.86163126833127,85.38889721184604,-4.86969810548662,0.6879123586764966,,,,3,0,3,3
1788937616.522195,2878019237.0,-9.63671875,0.85546875,0.0390625,-0.017578125,-0.0546875,0.037109375,27.9375,-3.5625,-30.375,27.9375,-3.5625,-30.375,-0.0004498220110274068,-0.7056890334528887,0.05464954256176098,0.7064107963658798,91.4475766371546,85.53386925784172,-92.9485595960974,0.49969482421875,0.53900146484375,0.45758056640625,-0.50042724609375,89.86163126833127,85.38889721184604,-4.86969810548662,0.6919015614703592,,,,3,0,3,3
1788937616.51826,2878024520.0,-9.6328125,0.89453125,0.1171875,-0.021484375,-0.048828125,0.033203125,27.9375,-3.5625,-30.375,27.9375,-3.5625,-30.375,-0.0006506988170397806,-0.7055032598553221,0.05454530505269666,0.7066042291277852,91.04299340619863,85.5255257791445,-93.32839540558163,0.49993896484375,0.53887939453125,0.4573974609375,-0.50048828125,89.43878757028594,85.37747346118637,-5.290269480076556,0.6462509447596384,,,,3,0,3,3
1788937616.522195,2878028273.0,-9.6328125,0.89453125,0.1171875,-0.021484375,-0.048828125,0.033203125,32.3125,-4.5,-29.1875,32.3125,-4.5,-29.1875,-0.000800540498832826,-0.7053517211645116,0.05458908170045771,0.7067519655043569,90.73327958797543,85.50928048448512,-93.6295263495621,0.49993896484375,0.53887939453125,0.4573974609375,-0.50048828125,89.43878757028594,85.37747346118637,-5.290269480076556,0.6344962790592508,,,,3,0,3,3
1788937616.522195,2878032379.0,-9.6328125,0.89453125,0.15625,-0.029296875,-0.048828125,0.037109375,32.3125,-4.5,-29.1875,32.3125,-4.5,-29.1875,-0.0009648916767528401,-0.7051815313628966,0.054622364342603806,0.7069190011043387,90.38580789615065,85.49248778590409,-93.96638697510808,0.49993896484375,0.53887939453125,0.4573974609375,-0.50048828125,89.43878757028594,85.37747346118637,-5.290269480076556,0.6242884274714194,,,,3,0,3,3
1788937616.5410056,2878036239.0,-9.63671875,0.9296875,0.078125,-0.025390625,-0.03515625,0.037109375,32.9375,-3.5,-31.3125,32.9375,-3.5,-31.3125,-0.0011258889952361238,-0.7050924354969863,0.05449668656578399,0.707017327179645,90.18246405689337,85.48912499850586,-94.14647230484704,0.50018310546875,0.53875732421875,0.457275390625,-0.50042724609375,89.09820749474297,85.31621646814237,-5.567038457555943,1.094272842801911,,,,3,0,2,3
1788937616.5410056,2878040345.0,-9.67578125,0.89453125,0.078125,-0.029296875,-0.03515625,0.033203125,32.9375,-3.5,-31.3125,32.9375,-3.5,-31.3125,-0.0012746530267203908,-0.7050020507230909,0.05433662316035209,0.707119519684917,89.9713822753515,85.4894735337041,-94.33249257858014,0.50018310546875,0.53875732421875,0.457275390625,-0.50042724609375,89.09820749474297,85.31621646814237,-5.567038457555943,1.1012293492350493,,,,3,0,2,3
1788937616.5390525,2878044128.0,-9.67578125,0.89453125,0.1171875,-0.033203125,-0.037109375,0.03125,32.9375,-3.5,-31.3125,32.9375,-3.5,-31.3125,-0.00140898372958808,-0.7049034319724876,0.05419592825117443,0.7072283702731755,89.74653677572587,85.48931772566557,-94.53502047093346,0.50042724609375,0.5386962890625,0.4571533203125,-0.5003662109375,88.85358445730175,85.2981888929384,-5.80219111181468,1.0777140109356258,,,,3,0,2,3
1788937616.554761,2878048534.0,-9.75390625,0.9296875,0.1171875,-0.02734375,-0.029296875,0.02734375,32.625,-4.0625,-29.375,32.625,-4.0625,-29.375,-0.0015988620388230133,-0.7047694373107571,0.05414254820745407,0.7073655832357574,89.46430417536124,85.47728866941843,-94.79753087626156,0.50042724609375,0.5386962890625,0.4571533203125,-0.5003662109375,88.85358445730175,85.2981888929384,-5.80219111181468,1.07846224017732,,,,3,0,2,3
1788937616.5568297,2878053564.0,-9.75390625,0.85546875,0.1171875,-0.02734375,-0.029296875,0.02734375,32.625,-4.0625,-29.375,32.625,-4.0625,-29.375,-0.0017541763154495578,-0.7046213443408522,0.05401529667622349,0.7075224602015996,89.14162546242893,85.47379810159853,-95.09728520209762,0.50042724609375,0.5386962890625,0.4571533203125,-0.5003662109375,88.85358445730175,85.2981888929384,-5.80219111181468,1.0844981824041653,,,,3,0,2,3
1788937616.56282,2878058423.0,-9.83203125,0.9296875,0.0390625,-0.0234375,-0.01953125,0.0234375,29.0625,-5.625,-25.375,29.0625,-5.625,-25.375,-0.0018976171802704443,-0.7045668724205545,0.05424839958871286,0.7075585010998162,89.07310867125148,85.44291966672087,-95.17312322186488,0.50067138671875,0.53863525390625,0.45709228515625,-0.50030517578125,88.68822281280251,85.32290764575204,-5.997600408206545,0.5788567003660906,,,,3,0,3,3
1788937616.5647876,2878059600.0,-9.83203125,0.9296875,0.078125,-0.0234375,-0.01953125,0.0234375,29.0625,-5.625,-25.375,29.0625,-5.625,-25.375,-0.00193210994970836,-0.7045503364155417,0.054304404724639134,0.7075705774234764,89.0498177450655,85.43546748257728,-95.19817084633492,0.50067138671875,0.53863525390625,0.45709228515625,-0.50030517578125,88.68822281280251,85.32290764575204,-5.997600408206545,0.572270700163867,,,,3,0,3,3
1788937616.5648181,2878063629.0,-9.8984375,0.9296875,0.078125,-0.0234375,-0.01953125,0.0234375,29.0625,-5.625,-25.375,29.0625,-5.625,-25.375,-0.0020487636457402086,-0.7044937104975276,0.05449652030195869,0.7076118595048614,88.97073721082484,85.41003392498561,-95.28341276128957,0.50067138671875,0.53863525390625,0.45709228515625,-0.50030517578125,88.68822281280251,85.32290764575204,-5.997600408206545,0.5499341603625341,,,,3,0,3,3
1788937616.5758688,2878067612.0,-9.8984375,0.9296875,0.15625,-0.021484375,-0.017578125,0.0234375,29.625,-6.375,-24.0625,29.625,-6.375,-24.0625,-0.0021544599918323624,-0.7044330338519083,0.05468814518167799,0.707657166922605,88.8842209985872,85.38548064864574,-95.37693873844759,0.50079345703125,0.53857421875,0.45703125,-0.500244140625,88.52182273157808,85.26955981892476,-6.107096448824316,1.0354474812590844,,,,3,0,3,3
1788937616.5767958,2878071918.0,-9.9375,0.89453125,0.1171875,-0.0234375,-0.01171875,0.01953125,29.625,-6.375,-24.0625,29.625,-6.375,-24.0625,-0.002259614604747794,-0.704384610643431,0.05489081482500852,0.7076893477214327,88.82509901669312,85.36018485534304,-95.44401219731127,0.50079345703125,0.53857421875,0.45703125,-0.500244140625,88.52182273157808,85.26955981892476,-6.107096448824316,1.0238671575776137,,,,3,0,3,3
1788937616.5807927,2878075301.0,-9.98046875,0.85546875,0.15625,-0.015625,-0.005859375,0.015625,29.625,-6.375,-24.0625,29.625,-6.375,-24.0625,-0.0023212287895847832,-0.7043459323688329,0.05505300684351082,0.707715045685673,88.77800357093368,85.34176227538737,-95.49929759673253,0.5009765625,0.53851318359375,0.45703125,-0.50018310546875,88.43386838818854,85.29782956558087,-6.221063201437654,0.5309132267224523,,,,3,0,3,3
1788937616.5847933,2878079607.0,-9.98046875,0.85546875,0.15625,-0.01953125,-0.001953125,0.015625,29.625,-6.375,-24.0625,29.625,-6.375,-24.0625,-0.0024054330950685843,-0.704302446556933,0.0552535135836635,0.7077424156444233,88.72913227030618,85.31837421918348,-95.55764277800266,0.5009765625,0.53851318359375,0.45703125,-0.50018310546875,88.43386838818854,85.29782956558087,-6.221063201437654,0.510279742438598,,,,3,0,3,3
1788937616.57909,2878083560.0,-9.98046875,0.81640625,0.15625,-0.01953125,-0.001953125,0.015625,29.625,-6.375,-24.0625,29.625,-6.375,-24.0625,-0.0024737979163039453,-0.7042611193288753,0.055438095345423655,0.7077688702606103,88.68192133027594,85.29756826372343,-95.61431704872787,0.5009765625,0.53851318359375,0.45703125,-0.50018310546875,88.43386838818854,85.29782956558087,-6.221063201437654,0.49158650535706483,,,,3,0,3,3
1788937616.5881178,2878086743.0,-9.8984375,0.85546875,0.1171875,-0.01953125,0.0,0.01171875,28.5,-5.0,-24.75,28.5,-5.0,-24.75,-0.0025355294684078836,-0.7042130153626692,0.05556713927091528,0.7078063952221529,88.61189267353431,85.28170159782705,-95.68983287229926,0.50103759765625,0.5384521484375,0.45703125,-0.5001220703125,88.34370376089844,85.24846634709826,-6.2503223325108745,1.042342156043242,,,,3,0,3,3
1788937616.5881178,2878091050.0,-9.859375,0.9296875,0.15625,-0.01171875,0.0,0.005859375,28.5,-5.0,-24.75,28.5,-5.0,-24.75,-0.0026228274085668135,-0.7041439942287101,0.05573101238468705,0.7078618582934111,88.50846116678316,85.26073973355638,-95.79951134947092,0.50103759765625,0.5384521484375,0.45703125,-0.5001220703125,88.34370376089844,85.24846634709826,-6.2503223325108745,1.0349834652900898,,,,3,0,3,3
1788937616.6038153,2878098939.0,-9.79296875,0.9296875,0.15625,-0.01171875,0.0,-0.005859375,28.8125,-4.5625,-24.625,28.8125,-4.5625,-24.625,-0.0027750288140196955,-0.7039868091390796,0.05591785822494086,0.7080028706896562,88.24105165665769,85.23170905848679,-96.0697777882123,0.5010986328125,0.5384521484375,0.45703125,-0.50006103515625,88.34614063381659,85.2415965770667,-6.24102112143137,1.02579721705974,,,,3,0,3,3
1788937616.6038153,2878099015.0,-9.79296875,0.9296875,0.15625,-0.01171875,0.0,-0.005859375,28.8125,-4.5625,-24.625,28.8125,-4.5625,-24.625,-0.002776487596952233,-0.7039852850457897,0.05591963608610375,0.708004239998335,88.2384687957962,85.2314311598326,-96.07238697970232,0.5010986328125,0.5384521484375,0.45703125,-0.50006103515625,88.34614063381659,85.2415965770667,-6.24102112143137,1.0257267215413048,,,,3,0,3,3
1788937616.6073315,2878103698.0,-9.71484375,1.0078125,0.1953125,-0.025390625,0.0,-0.013671875,28.8125,-4.5625,-24.625,28.8125,-4.5625,-24.625,-0.002893293395480366,-0.7038972119649536,0.055992639339723684,0.7080855655788109,88.08526319913051,85.21511863028846,-96.22206332124675,0.50115966796875,0.53839111328125,0.45709228515625,-0.5,88.33235137122956,85.2348343233794,-6.233291344851835,1.0805260204860383,,,,3,0,3,3
1788937616.6112666,2878106551.0,-9.67578125,0.96875,0.15625,-0.025390625,0.0,-0.013671875,28.6875,-5.1875,-25.6875,28.6875,-5.1875,-25.6875,-0.002951725635845704,-0.7038581851435508,0.0560716722790916,0.7081178645465906,88.02666651941587,85.20358541384311,-96.28235003165277,0.50115966796875,0.53839111328125,0.45709228515625,-0.5,88.33235137122956,85.2348343233794,-6.233291344851835,1.0779541305794775,,,,3,0,3,3
1788937616.6112666,2878110857.0,-9.6328125,0.96875,0.15625,-0.025390625,0.0,-0.021484375,28.6875,-5.1875,-25.6875,28.6875,-5.1875,-25.6875,-0.0030288034341270937,-0.7038003186421588,0.056178896317724374,0.7081665548707278,87.93813540425141,85.18804939844559,-96.3733522547201,0.50115966796875,0.53839111328125,0.45709228515625,-0.5,88.33235137122956,85.2348343233794,-6.233291344851835,1.0746769130580272,,,,3,0,3,3
1788937616.6187618,2878115017.0,-9.67578125,0.96875,0.1171875,-0.041015625,0.001953125,-0.02734375,28.6875,-5.1875,-25.6875,28.6875,-5.1875,-25.6875,-0.0031202357949919185,-0.7037605881933993,0.05626186253307635,0.7081990549687097,87.8808336581481,85.17351073981006,-96.42998993641879,0.501220703125,0.5382080078125,0.457275390625,-0.5,88.28490150280057,85.27378563970224,-6.280289168819929,0.8475142056437269,,,,3,0,3,3
1788937616.620715,2878122223.0,-9.6328125,0.96875,0.1171875,-0.046875,0.001953125,-0.02734375,30.4375,-3.25,-30.625,30.4375,-3.25,-30.625,-0.0032933595266168825,-0.7037139423237011,0.05578318464587878,0.7082824842342403,87.7069142208637,85.19742005831786,-96.55097367112293,0.501220703125,0.5382080078125,0.457275390625,-0.5,88.28490150280057,85.27378563970224,-6.280289168819929,0.8698282608146326,,,,3,0,3,3
1788937616.6187618,2878126082.0,-9.67578125,0.96875,0.078125,-0.048828125,0.0078125,-0.0390625,32.125,-4.75,-30.5625,32.125,-4.75,-30.5625,-0.003453293474805007,-0.7036763749457484,0.05574200613122912,0.7083222874227899,87.63316070944708,85.18733072865933,-96.60842148730669,0.50128173828125,0.53802490234375,0.45745849609375,-0.49993896484375,88.23849153288587,85.26726205675243,-6.275921139779817,1.0622351390759828,,,,3,0,2,3
1788937616.620715,2878130389.0,-9.67578125,0.96875,0.078125,-0.04296875,0.013671875,-0.03515625,32.125,-4.75,-30.5625,32.125,-4.75,-30.5625,-0.0036300094965761344,-0.7036434564056144,0.05571144183359119,0.70835650949041,87.57134139026613,85.17508599282836,-96.65343790298256,0.50128173828125,0.53802490234375,0.45745849609375,-0.49993896484375,88.23849153288587,85.26726205675243,-6.275921139779817,1.0656285879627452,,,,3,0,2,3
1788937616.6335583,2878133971.0,-9.75,0.96875,0.1171875,-0.03125,0.0234375,-0.037109375,32.125,-4.75,-30.5625,32.125,-4.75,-30.5625,-0.003732834170602945,-0.7036085651633806,0.055678273959509014,0.7083932402180821,87.50249643983337,85.16899169255754,-96.71125578173434,0.501220703125,0.53790283203125,0.45770263671875,-0.49993896484375,88.35842046144184,85.3139063308008,-6.162276097995498,0.8481474826776934,,,,3,0,2,3
1788937616.6355114,2878139254.0,-9.75,1.0078125,0.15625,-0.03515625,0.01953125,-0.037109375,32.4375,-4.25,-30.4375,32.4375,-4.25,-30.4375,-0.0038755272072632523,-0.7035488382951678,0.05550076521673117,0.7084657207534765,87.36008468820111,85.17093310839104,-96.82767854721402,0.501220703125,0.53790283203125,0.45770263671875,-0.49993896484375,88.35842046144184,85.3139063308008,-6.162276097995498,0.858935875198389,,,,3,0,2,3
1788937616.6335583,2878143407.0,-9.828125,0.96875,0.15625,-0.03515625,0.01953125,-0.037109375,32.4375,-4.25,-30.4375,32.4375,-4.25,-30.4375,-0.003963921344525288,-0.7035009562402667,0.05533081251667311,0.7085260708561467,87.23926216183443,85.1767916388769,-96.92752611310772,0.501220703125,0.53790283203125,0.45770263671875,-0.49993896484375,88.35842046144184,85.3139063308008,-6.162276097995498,0.8687932516934052,,,,3,0,2,3
1788937616.6523237,2878149267.0,-9.828125,0.96875,0.1171875,-0.0390625,0.03125,-0.0390625,31.375,-5.4375,-29.4375,31.375,-5.4375,-29.4375,-0.004076812216545461,-0.7035015799148575,0.05541889881297856,0.7085179266001724,87.262938153925,85.16061010074861,-96.90186195361404,0.501220703125,0.53778076171875,0.45794677734375,-0.4998779296875,88.48212521879444,85.35407757192843,-6.03824906525617,0.5690433734819027,,,,3,0,2,3
1788937616.6562588,2878149643.0,-9.859375,0.9296875,0.1171875,-0.048828125,0.03125,-0.041015625,31.375,-5.4375,-29.4375,31.375,-5.4375,-29.4375,-0.004083781520005002,-0.7035010916125484,0.055423045262942776,0.708518046970034,87.26313840966536,85.15970764424031,-96.90143399764021,0.501220703125,0.53778076171875,0.45794677734375,-0.4998779296875,88.48212521879444,85.35407757192843,-6.03824906525617,0.5690535099373965,,,,3,0,2,3
1788937616.6553674,2878153673.0,-9.90234375,0.89453125,0.078125,-0.048828125,0.03125,-0.041015625,31.375,-5.4375,-29.4375,31.375,-5.4375,-29.4375,-0.0041449984182105465,-0.7035133774229769,0.055484872777665895,0.7085006532586087,87.3013866566452,85.14996504037504,-96.86325029153289,0.501220703125,0.53778076171875,0.45794677734375,-0.4998779296875,88.48212521879444,85.35407757192843,-6.03824906525617,0.5673766091685327,,,,3,0,2,3
1788937616.6584287,2878157656.0,-9.94140625,0.9296875,0.1171875,-0.056640625,0.033203125,-0.037109375,29.375,-2.1875,-24.625,29.375,-2.1875,-24.625,-0.004180470189426015,-0.703553574053909,0.05516269874408119,0.7084856870623683,87.3167565868687,85.17350811900486,-96.81881994932019,0.50115966796875,0.53765869140625,0.458251953125,-0.499755859375,88.6849957752346,85.3517275888965,-5.780227777400055,0.8851704581067729,,,,3,0,3,3
1788937616.6669545,2878161962.0,-9.9375,0.89453125,0.0390625,-0.052734375,0.029296875,-0.0390625,29.375,-2.1875,-24.625,29.375,-2.1875,-24.625,-0.004200300479618742,-0.7036153503495767,0.054809323563981806,0.708451645688527,87.36726353157229,85.20110613135326,-96.7379847496897,0.50115966796875,0.53765869140625,0.458251953125,-0.499755859375,88.6849957752346,85.3517275888965,-5.780227777400055,0.8990458955309416,,,,3,0,3,3
1788937616.6669545,2878165145.0,-10.015625,0.9296875,0.0390625,-0.05078125,0.01953125,-0.03125,29.375,-2.1875,-24.625,29.375,-2.1875,-24.625,-0.004228589502984682,-0.7036489337421251,0.054559280952753295,0.7084374227384548,87.38464475683843,85.21934618909067,-96.6979893438214,0.50115966796875,0.5374755859375,0.45855712890625,-0.4996337890625,88.79683086407836,85.34582624485991,-5.602891301060215,1.1460726979104932,,,,3,0,3,3
1788937616.6669545,2878169651.0,-9.98046875,0.96875,0.00390625,-0.0546875,0.01953125,-0.04296875,29.375,-2.1875,-24.625,29.375,-2.1875,-24.625,-0.004273554203811787,-0.7037101682335539,0.05418156537458924,0.7084053174791459,87.4319745416867,85.24685428420506,-96.61631854533675,0.50115966796875,0.5374755859375,0.45855712890625,-0.4996337890625,88.79683086407836,85.34582624485991,-5.602891301060215,1.1591844188694815,,,,3,0,3,3
1788937616.6650014,2878173681.0,-9.98046875,0.96875,-0.07421875,-0.0546875,0.01953125,-0.04296875,29.375,-2.1875,-24.625,29.375,-2.1875,-24.625,-0.004315295102477086,-0.7037894490640305,0.05385247773481673,0.7083513960289397,87.52470339584663,85.27093918324579,-96.49346254170047,0.50115966796875,0.5374755859375,0.45855712890625,-0.4996337890625,88.79683086407836,85.34582624485991,-5.602891301060215,1.1716482199631355,,,,3,0,3,3
1788937616.6669545,2878177564.0,-9.90234375,0.9296875,-0.07421875,-0.0625,0.0078125,-0.04296875,28.75,-4.5625,-25.0,28.75,-4.5625,-25.0,-0.004404966612638936,-0.7038535327643752,0.05384925976373634,0.7082874119361066,87.65278125257139,85.2647489804584,-96.35785590933594,0.501220703125,0.53729248046875,0.4588623046875,-0.49957275390625,88.91022092792788,85.42655561772679,-5.519449486404404,0.49754426281385694,,,,3,0,3,3
1788937616.6841278,2878180893.0,-9.94140625,0.9296875,-0.03515625,-0.068359375,-0.001953125,-0.048828125,28.75,-4.5625,-25.0,28.75,-4.5625,-25.0,-0.004486975114765799,-0.7038832964368185,0.05384761494947756,0.7082574436007082,87.71370058982887,85.25861510713523,-96.29015720107463,0.501220703125,0.53729248046875,0.4588623046875,-0.49957275390625,88.91022092792788,85.42655561772679,-5.519449486404404,0.5007571782550554,,,,3,0,3,3
1788937616.6924143,2878188782.0,-9.8984375,0.89453125,-0.07421875,-0.06640625,-0.021484375,-0.05078125,29.375,-3.6875,-25.125,29.375,-3.6875,-25.125,-0.0046250813382655385,-0.7040203606395538,0.05334975095975936,0.7081579940240023,87.89385570204085,85.28911261437212,-96.05835173611855,0.50128173828125,0.5369873046875,0.45916748046875,-0.49951171875,88.8349485671237,85.42045646879761,-5.515489323211832,0.9382294503963461,,,,3,0,3,3
1788937616.6950455,2878188859.0,-9.8984375,0.85546875,-0.03515625,-0.06640625,-0.021484375,-0.05078125,29.375,-3.6875,-25.125,29.375,-3.6875,-25.125,-0.0046260336197724876,-0.7040214143265419,0.05334381495814654,0.7081573874417435,87.8948588152564,85.28952533744629,-96.0567890858845,0.50128173828125,0.5369873046875,0.45916748046875,-0.49951171875,88.8349485671237,85.42045646879761,-5.515489323211832,0.9385158500170856,,,,3,0,3,3
1788937616.6941702,2878193542.0,-9.859375,0.85546875,-0.03515625,-0.06640625,-0.02734375,-0.044921875,29.375,-3.6875,-25.125,29.375,-3.6875,-25.125,-0.004698072419342877,-0.7040758645092415,0.05299561457501087,0.7081289218545757,87.94025609708606,85.31234007722415,-95.97725956327423,0.50146484375,0.53662109375,0.45941162109375,-0.49951171875,88.58469084872235,85.45442062630005,-5.7317403715648805,0.8225986096850217,,,,3,0,3,3
1788937616.6985974,2878196595.0,-9.859375,0.81640625,-0.03515625,-0.06640625,-0.02734375,-0.044921875,27.9375,-4.75,-26.125,27.9375,-4.75,-26.125,-0.004727325161007722,-0.7040782519360163,0.05300727272891335,0.7081254808191755,87.94813858445916,85.30906358023869,-95.96795397223751,0.50146484375,0.53662109375,0.45941162109375,-0.49951171875,88.58469084872235,85.45442062630005,-5.7317403715648805,0.8228258169257415,,,,3,0,3,3
1788937616.704229,2878200701.0,-9.86328125,0.85546875,0.00390625,-0.0625,-0.029296875,-0.0390625,27.9375,-4.75,-26.125,27.9375,-4.75,-26.125,-0.004794964137434044,-0.7040485546183965,0.05305615918761335,0.7081508914284624,87.90112571586508,85.29932285301665,-96.01345883963852,0.50146484375,0.53662109375,0.45941162109375,-0.49951171875,88.58469084872235,85.45442062630005,-5.7317403715648805,0.8224488526609255,,,,3,0,3,3
1788937616.702276,2878204860.0,-9.83203125,0.81640625,-0.03515625,-0.056640625,-0.03125,-0.033203125,27.9375,-4.75,-26.125,27.9375,-4.75,-26.125,-0.004837344008786328,-0.7040454887770187,0.053102915770391945,0.7081501466301846,87.90524389546952,85.2920989532826,-96.00970594550037,0.50164794921875,0.53631591796875,0.45965576171875,-0.49951171875,88.42873712915572,85.53340816123779,-5.910011707029914,0.0,,,,3,0,3,3
1788937616.7149463,2878212067.0,-9.7890625,0.77734375,0.0390625,-0.056640625,-0.03515625,-0.025390625,28.8125,-2.625,-24.4375,28.8125,-2.625,-24.4375,-0.004862598389689282,-0.7039727382332176,0.05254038160409256,0.7082642496005447,87.65805488145558,85.33445515772756,-96.20914111740879,0.50164794921875,0.53631591796875,0.45965576171875,-0.49951171875,88.42873712915572,85.53340816123779,-5.910011707029914,0.0,,,,3,0,3,3
1788937616.7129931,2878216903.0,-9.71484375,0.81640625,0.0390625,-0.046875,-0.025390625,-0.01953125,29.375,-2.0,-28.9375,29.375,-2.0,-28.9375,-0.004910797408586348,-0.7039435103434512,0.05218750535843758,0.7083190542394115,87.53519727143245,85.35857821046062,-96.29942207167433,0.5018310546875,0.5360107421875,0.45977783203125,-0.49951171875,88.111104791519,85.52309837890867,-6.167902845275419,0.19017959472780624,,,,3,0,3,3
1788937616.7248924,2878220232.0,-9.71484375,0.81640625,0.0390625,-0.044921875,-0.03125,-0.009765625,29.375,-2.0,-28.9375,29.375,-2.0,-28.9375,-0.004953701137301491,-0.7039158659909776,0.05195836416042351,0.7083630727564695,87.43815162330772,85.37318768740963,-96.37437428013502,0.5018310546875,0.5360107421875,0.45977783203125,-0.49951171875,88.111104791519,85.52309837890867,-6.167902845275419,0.24201776077444173,,,,3,0,3,3
1788937616.7284606,2878224015.0,-9.671875,0.81640625,0.0390625,-0.04296875,-0.03125,-0.00390625,29.375,-2.0,-28.9375,29.375,-2.0,-28.9375,-0.005009382579405864,-0.7038840506403449,0.051708417252740016,0.708412583827765,87.32885674594466,85.38837325585844,-96.45885047360846,0.501953125,0.5357666015625,0.4598388671875,-0.49951171875,87.80712288463596,85.47173322532942,-6.380493123526191,1.0725207954706575,,,,3,0,3,3
1788937616.7304137,2878228898.0,-9.67578125,0.81640625,0.00390625,-0.041015625,-0.03125,0.0078125,33.0625,-4.3125,-30.6875,33.0625,-4.3125,-30.6875,-0.005166120993709405,-0.7039125052016602,0.05146428556659596,0.7084009623975118,87.34586553031325,85.39569572989802,-96.40930620519323,0.501953125,0.5357666015625,0.4598388671875,-0.49951171875,87.80712288463596,85.47173322532942,-6.380493123526191,1.086780527439475,,,,3,0,2,3
1788937616.7284606,2878233251.0,-9.671875,0.85546875,0.0390625,-0.041015625,-0.03125,0.0078125,33.0625,-4.3125,-30.6875,33.0625,-4.3125,-30.6875,-0.005431362309502619,-0.7038521854021805,0.05132592358669712,0.7084689484910471,87.21089251633957,85.38460674187576,-96.51154652081988,0.501953125,0.5357666015625,0.4598388671875,-0.49951171875,87.80712288463596,85.47173322532942,-6.380493123526191,1.0995891499744688,,,,3,0,2,3
1788937616.740137,2878239110.0,-9.63671875,0.81640625,0.0390625,-0.037109375,-0.037109375,0.013671875,32.5625,-3.6875,-29.6875,32.5625,-3.6875,-29.6875,-0.005563242658814344,-0.703782964207333,0.05098919718482616,0.7085610004742753,87.0128283434835,85.40008105955087,-96.67156950894137,0.50225830078125,0.53558349609375,0.45977783203125,-0.49945068359375,87.44776893968427,85.45077008288162,-6.706308173298646,1.1481236691704702,,,,3,0,2,3
1788937616.7440722,2878240464.0,-9.63671875,0.85546875,0.078125,-0.037109375,-0.033203125,0.0234375,32.5625,-3.6875,-29.6875,32.5625,-3.6875,-29.6875,-0.005612382536032873,-0.7037561456926256,0.0509260283610238,0.7085917923582671,86.94911595064194,85.40081891207343,-96.72616871422782,0.50225830078125,0.53558349609375,0.45977783203125,-0.49945068359375,87.44776893968427,85.45077008288162,-6.706308173298646,1.1522785938504445,,,,3,0,2,3
1788937616.7441242,2878243517.0,-9.59765625,0.81640625,0.078125,-0.037109375,-0.033203125,0.0234375,32.5625,-3.6875,-29.6875,32.5625,-3.6875,-29.6875,-0.005696187495920383,-0.7036995558934693,0.05077299178074618,0.708658303972357,86.80956959086352,85.40555021359317,-96.84649280758521,0.50225830078125,0.53558349609375,0.45977783203125,-0.49945068359375,87.44776893968427,85.45077008288162,-6.706308173298646,1.161790566718767,,,,3,0,2,3
1788937616.7460773,2878247700.0,-9.63671875,0.85546875,0.0390625,-0.037109375,-0.029296875,0.01953125,32.3125,-2.125,-28.9375,32.3125,-2.125,-28.9375,-0.005789349131964064,-0.7036668823953742,0.05053982155255248,0.7087066589880745,86.70213987053882,85.41627947886097,-96.92743209017046,0.50244140625,0.53546142578125,0.459716796875,-0.49945068359375,87.18119145140574,85.44002387752414,-6.95648256795966,1.1866478921111845,,,,3,0,2,3
1788937616.7460773,2878251906.0,-9.67578125,0.89453125,0.0390625,-0.033203125,-0.025390625,0.029296875,32.3125,-2.125,-28.9375,32.3125,-2.125,-28.9375,-0.0059059983661830275,-0.7036391548803805,0.05032696899597186,0.7087483721986253,86.60988656733377,85.42354372206198,-96.99294254689747,0.50244140625,0.53546142578125,0.459716796875,-0.49945068359375,87.18119145140574,85.44002387752414,-6.95648256795966,1.2003725580455111,,,,3,0,2,3
1788937616.7590988,2878258942.0,-9.7109375,0.89453125,0.078125,-0.033203125,-0.025390625,0.03125,28.9375,-3.9375,-23.9375,28.9375,-3.9375,-23.9375,-0.006265790116121,-0.7034993622581005,0.05058621052291073,0.7088655884450862,86.4052297297915,85.37163558376966,-97.18950688621295,0.502685546875,0.535400390625,0.459716796875,-0.49932861328125,87.09793241129759,85.46371633353012,-7.0623261620264275,0.8043514572748267,,,,3,0,3,3
1788937616.7630339,2878259995.0,-9.75390625,0.96875,0.00390625,-0.037109375,-0.025390625,0.029296875,28.9375,-3.9375,-23.9375,28.9375,-3.9375,-23.9375,-0.00632211893182303,-0.7034945555403189,0.050621866374813744,0.7088673132413933,86.40654087442113,85.3641593452639,-97.18652793506114,0.502685546875,0.535400390625,0.459716796875,-0.49932861328125,87.09793241129759,85.46371633353012,-7.0623261620264275,0.8039198893210595,,,,3,0,3,3
1788937616.7610807,2878263625.0,-9.828125,0.96875,0.0390625,-0.037109375,-0.025390625,0.029296875,28.9375,-3.9375,-23.9375,28.9375,-3.9375,-23.9375,-0.0065218086035977434,-0.7034569587429195,0.05074985576046118,0.7088936629347119,86.37089929988257,85.33721575759064,-97.21638638467199,0.502685546875,0.535400390625,0.459716796875,-0.49932861328125,87.09793241129759,85.46371633353012,-7.0623261620264275,0.8029260179382803,,,,3,0,3,3
1788937616.7630339,2878267407.0,-9.828125,0.96875,0.0390625,-0.046875,-0.0234375,0.029296875,28.75,-2.6875,-24.75,28.75,-2.6875,-24.75,-0.0067043285224709275,-0.7034359154526104,0.05055793650539551,0.708926554649159,86.30134451938157,85.33755914296763,-97.25556060422036,0.5029296875,0.5352783203125,0.45965576171875,-0.49920654296875,86.84073672254561,85.39932732185582,-7.243999087284895,1.2192213575817166,,,,3,0,3,3
1788937616.7630339,2878270814.0,-9.86328125,0.9296875,0.00390625,-0.05078125,-0.017578125,0.021484375,28.75,-2.6875,-24.75,28.75,-2.6875,-24.75,-0.006837147074723979,-0.7034440629358932,0.050363944396155796,0.7089310099332534,86.28592638205565,85.34252597037568,-97.24445693420326,0.5029296875,0.5352783203125,0.45965576171875,-0.49920654296875,86.84073672254561,85.39932732185582,-7.243999087284895,1.2323631450867403,,,,3,0,3,3
1788937616.7742527,2878278873.0,-9.8984375,0.85546875,0.0390625,-0.060546875,-0.017578125,0.015625,28.75,-2.6875,-24.75,28.75,-2.6875,-24.75,-0.007066963682731166,-0.7034221471280472,0.04983531300870198,0.7089878578166199,86.1479798076514,85.36602965437416,-97.32083926878023,0.50323486328125,0.53515625,0.459716796875,-0.49908447265625,86.74402450751253,85.46367315409891,-7.394979726254687,0.3340854603655265,,,,3,0,3,3
1788937616.7762346,2878279026.0,-9.8984375,0.81640625,0.0390625,-0.064453125,-0.015625,0.021484375,29.8125,-3.0625,-24.0,29.8125,-3.0625,-24.0,-0.007071065856905296,-0.7034219362767778,0.04982538880306359,0.7089887236218215,86.14576857231201,85.36649104680029,-97.32191195185854,0.50323486328125,0.53515625,0.459716796875,-0.49908447265625,86.74402450751253,85.46367315409891,-7.394979726254687,0.3364652571934412,,,,3,0,3,3
1788937616.7781878,2878283179.0,-9.8984375,0.77734375,0.00390625,-0.064453125,-0.015625,0.021484375,29.8125,-3.0625,-24.0,29.8125,-3.0625,-24.0,-0.00715958874909502,-0.7034370791238136,0.0495654499551508,0.7089910310952072,86.12768653489486,85.38042723145065,-97.31170582960434,0.50323486328125,0.53515625,0.459716796875,-0.49908447265625,86.74402450751253,85.46367315409891,-7.394979726254687,0.3934395185956336,,,,3,0,3,3
1788937616.7781878,2878286839.0,-9.8984375,0.81640625,0.078125,-0.064453125,-0.021484375,0.02734375,28.375,-2.75,-25.1875,28.375,-2.75,-25.1875,-0.0072731265228357595,-0.7034027529599161,0.04933833114185192,0.7090397716906512,86.01945703832492,85.38893149577491,-97.39228744518785,0.5035400390625,0.53497314453125,0.45977783203125,-0.4989013671875,86.55454644984161,85.43721650731833,-7.530048883084516,0.5902235129018348,,,,3,0,3,3
1788937616.793974,2878291045.0,-9.8984375,0.85546875,0.0390625,-0.06640625,-0.017578125,0.03125,28.375,-2.75,-25.1875,28.375,-2.75,-25.1875,-0.007438426336916215,-0.7033923573963168,0.049077921110378515,0.7090664419005922,85.95547273097037,85.39630705207455,-97.4217252909932,0.5035400390625,0.53497314453125,0.45977783203125,-0.4989013671875,86.55454644984161,85.43721650731833,-7.530048883084516,0.6300005216131355,,,,3,0,3,3
1788937616.793974,2878298404.0,-9.8984375,0.81640625,0.0390625,-0.064453125,-0.017578125,0.033203125,28.75,-2.1875,-24.75,28.75,-2.1875,-24.75,-0.0076724195946349695,-0.7033698665626437,0.048630472083439284,0.7091170862235338,85.83256398315856,85.41293157844548,-97.48933026520533,0.50384521484375,0.5347900390625,0.45977783203125,-0.49871826171875,86.28940090319622,85.36722457452527,-7.699459719469723,1.1715512414488458,,,,3,0,3,3
1788937616.8008442,2878302510.0,-9.859375,0.81640625,0.0390625,-0.072265625,-0.015625,0.025390625,28.75,-2.1875,-24.75,28.75,-2.1875,-24.75,-0.007805469069899451,-0.703361432543361,0.048358056989779484,0.7091426289452095,85.7674474161089,85.42389332134466,-97.52154004569324,0.50384521484375,0.5347900390625,0.45977783203125,-0.49871826171875,86.28940090319622,85.36722457452527,-7.699459719469723,1.1937246178585306,,,,3,0,3,3
1788937616.8096983,2878307146.0,-9.86328125,0.81640625,0.00390625,-0.072265625,-0.01953125,0.03125,29.75,-2.6875,-24.625,29.75,-2.6875,-24.625,-0.007965869096416152,-0.7033690171397129,0.048066412658185884,0.7091531503361075,85.7324646455521,85.43445579345273,-97.5198382247929,0.50421142578125,0.53466796875,0.4598388671875,-0.49847412109375,86.20403459786526,85.37821509582847,-7.780469452441533,0.8724295584132264,,,,3,0,3,3
1788937616.8152812,2878310076.0,-9.86328125,0.77734375,0.0390625,-0.076171875,-0.017578125,0.021484375,29.75,-2.6875,-24.625,29.75,-2.6875,-24.625,-0.008048341682059314,-0.7033626949462449,0.047864920816931535,0.7091721179722967,85.68284451439362,85.44384477613778,-97.54641112786798,0.50421142578125,0.53466796875,0.4598388671875,-0.49847412109375,86.20403459786526,85.37821509582847,-7.780469452441533,0.8947533080071923,,,,3,0,3,3
1788937616.8173366,2878314835.0,-9.83203125,0.77734375,0.00390625,-0.07421875,-0.015625,0.015625,29.75,-2.6875,-24.625,29.75,-2.6875,-24.625,-0.008171758462705615,-0.7033776244828717,0.047536980167928365,0.7091779573964305,85.65215467762104,85.46041736153782,-97.54046652287087,0.5045166015625,0.534423828125,0.4599609375,-0.49822998046875,86.00294035880349,85.30729057372592,-7.861696991632744,1.3797711315055408,,,,3,0,3,3
1788937616.8212934,2878318942.0,-9.79296875,0.81640625,0.0390625,-0.076171875,-0.01171875,0.009765625,30.5625,-2.6875,-29.875,30.5625,-2.6875,-29.875,-0.008311468680379136,-0.7033782434856706,0.04723687544965493,0.709195772461414,85.59972276649061,85.47320889102345,-97.55720527660394,0.5045166015625,0.534423828125,0.4599609375,-0.49822998046875,86.00294035880349,85.30729057372592,-7.861696991632744,1.4020065046251735,,,,3,0,3,3
1788937616.8239143,2878323095.0,-9.79296875,0.77734375,0.00390625,-0.076171875,-0.01171875,0.009765625,30.5625,-2.6875,-29.875,30.5625,-2.6875,-29.875,-0.00843434016016288,-0.7033948555390284,0.046936652315993366,0.7091977790268803,85.57849206726142,85.4876357337954,-97.5440980999909,0.5045166015625,0.534423828125,0.4599609375,-0.49822998046875,86.00294035880349,85.30729057372592,-7.861696991632744,1.4246060236160547,,,,3,0,3,3
1788937616.8279128,2878328954.0,-9.75390625,0.73828125,0.00390625,-0.08203125,-0.021484375,0.009765625,31.25,-4.625,-30.0,31.25,-4.625,-30.0,-0.008581133955501724,-0.7034271183694599,0.04700578012463493,0.7091594389961612,85.670421121866,85.47081219197574,-97.44588673613882,0.50482177734375,0.53424072265625,0.4600830078125,-0.49810791015625,85.89214865889876,85.37152878225841,-8.012846956839473,0.7842775503822356,,,,3,0,3,3
1788937616.831848,2878330307.0,-9.7109375,0.703125,-0.03515625,-0.068359375,-0.021484375,0.001953125,31.25,-4.625,-30.0,31.25,-4.625,-30.0,-0.008596337621876528,-0.7034430405765382,0.04700488968265056,0.7091435200224616,85.70374223156279,85.46992169922545,-97.411261001254,0.50482177734375,0.53424072265625,0.4600830078125,-0.49810791015625,85.89214865889876,85.37152878225841,-8.012846956839473,0.7851548088109224,,,,3,0,3,3
1788937616.8298948,2878334167.0,-9.67578125,0.6640625,-0.03515625,-0.0625,-0.0234375,0.005859375,31.25,-4.625,-30.0,31.25,-4.625,-30.0,-0.008606083104730503,-0.7034878025936978,0.04698561943185685,0.709100273940216,85.79134490899965,85.47141248659581,-97.32130291424515,0.50506591796875,0.53399658203125,0.460205078125,-0.49798583984375,85.68364928349112,85.35336612904433,-8.160566519221085,0.9331879872577674,,,,3,0,3,3
1788937616.831848,2878338243.0,-9.63671875,0.703125,0.00390625,-0.0625,-0.0234375,0.005859375,31.25,-4.625,-30.0,31.25,-4.625,-30.0,-0.008636172390244246,-0.7035133248082763,0.04703567104847126,0.7090712686272591,85.85595976801935,85.46538792271582,-97.2583139137539,0.50506591796875,0.53399658203125,0.460205078125,-0.49798583984375,85.68364928349112,85.35336612904433,-8.160566519221085,0.9297091044546596,,,,3,0,3,3
1788937616.8419209,2878341573.0,-9.63671875,0.6640625,0.00390625,-0.0625,-0.01953125,0.0078125,31.25,-4.625,-30.0,31.25,-4.625,-30.0,-0.008621087813958138,-0.7035420663748368,0.04703972320032625,0.7090426659427241,85.91406452287211,85.4667378149778,-97.20176011373857,0.50506591796875,0.53399658203125,0.460205078125,-0.49798583984375,85.68364928349112,85.35336612904433,-8.160566519221085,0.9293318201468515,,,,3,0,3,3
1788937616.8419209,2878345432.0,-9.6328125,0.703125,0.078125,-0.044921875,-0.021484375,0.01953125,31.1875,-5.625,-30.4375,31.1875,-5.625,-30.4375,-0.008682872445476808,-0.7034950053625726,0.047195916008570364,0.7090782260569857,85.85588736085545,85.44848566955828,-97.26761558993174,0.50531005859375,0.53387451171875,0.46026611328125,-0.49786376953125,85.58963533272349,85.37781247943245,-8.263817416313934,0.3689444759245754,,,,3,0,3,3
1788937616.8419209,2878349439.0,-9.6328125,0.77734375,0.078125,-0.044921875,-0.013671875,0.015625,31.1875,-5.625,-30.4375,31.1875,-5.625,-30.4375,-0.008775600641102383,-0.7034581507800048,0.04735388697135452,0.7091031154375703,85.82146020852547,85.4277577588048,-97.30735795410789,0.50531005859375,0.53387451171875,0.46026611328125,-0.49786376953125,85.58963533272349,85.37781247943245,-8.263817416313934,0.33697089039096134,,,,3,0,3,3
1788937616.8399677,2878353468.0,-9.67578125,0.73828125,0.0390625,-0.044921875,-0.013671875,0.015625,31.1875,-5.625,-30.4375,31.1875,-5.625,-30.4375,-0.00884810842280581,-0.7034397307096262,0.04750997467127011,0.7091100468497412,85.82248377146202,85.40910752312845,-97.31313509111321,0.50531005859375,0.53387451171875,0.46026611328125,-0.49786376953125,85.58963533272349,85.37781247943245,-8.263817416313934,0.30273396379013356,,,,3,0,3,3
1788937616.858102,2878357451.0,-9.67578125,0.73828125,0.0390625,-0.046875,-0.005859375,0.015625,28.4375,-2.6875,-24.8125,28.4375,-2.6875,-24.8125,-0.008903418410776751,-0.7034480417617747,0.047270198070164644,0.7091171342285664,85.7930019108987,85.42400111110187,-97.31866225352054,0.5054931640625,0.53375244140625,0.46026611328125,-0.49774169921875,85.41731089956615,85.31895665665995,-8.358206480413404,0.9937048459075265,,,,3,0,3,3
1788937616.858102,2878361757.0,-9.7109375,0.73828125,0.1171875,-0.048828125,0.013671875,0.013671875,28.4375,-2.6875,-24.8125,28.4375,-2.6875,-24.8125,-0.008967730794307713,-0.7034445367324855,0.047016555407191636,0.7091366631780239,85.73740659268134,85.43908803512906,-97.34844796565768,0.5054931640625,0.53375244140625,0.46026611328125,-0.49774169921875,85.41731089956615,85.31895665665995,-8.358206480413404,1.016238965040639,,,,3,0,3,3
1788937616.8707824,2878365140.0,-9.7890625,0.703125,0.1171875,-0.048828125,0.0234375,0.01171875,28.75,-4.625,-25.3125,28.75,-4.625,-25.3125,-0.009011825261634628,-0.7034336026772156,0.04712865930175098,0.7091395089137443,85.7422947442436,85.42637339389022,-97.34909056729971,0.50567626953125,0.53363037109375,0.46044921875,-0.49749755859375,85.47719440445242,85.29910035333113,-8.240726930371808,1.1050383069496537,,,,3,0,3,3
1788937616.8737922,2878369446.0,-9.828125,0.73828125,0.15625,-0.05859375,0.029296875,0.001953125,28.75,-4.625,-25.3125,28.75,-4.625,-25.3125,-0.00909327615109331,-0.7034109013121126,0.04722710429965088,0.7091544379495848,85.72351243257211,85.41155099339086,-97.36926749015363,0.50567626953125,0.53363037109375,0.46044921875,-0.49749755859375,85.47719440445242,85.29910035333113,-8.240726930371808,1.0992615708421802,,,,3,0,3,3
1788937616.8728414,2878372623.0,-9.86328125,0.703125,0.1171875,-0.05859375,0.029296875,0.001953125,28.75,-4.625,-25.3125,28.75,-4.625,-25.3125,-0.00912768062149884,-0.7034073160722146,0.04730843158679943,0.709152131381802,85.73599491295766,85.40220371447255,-97.36060166418864,0.50567626953125,0.53363037109375,0.46044921875,-0.49749755859375,85.47719440445242,85.29910035333113,-8.240726930371808,1.0940999892471897,,,,3,0,3,3
1788937616.8798075,2878377659.0,-9.90234375,0.73828125,0.1171875,-0.060546875,0.0390625,0.001953125,28.9375,-2.8125,-25.4375,28.9375,-2.8125,-25.4375,-0.009195831749488294,-0.7034513146650628,0.04696990262989609,0.709130109938485,85.75835926127321,85.42455798011193,-97.30522225213461,0.50579833984375,0.5335693359375,0.46063232421875,-0.49725341796875,85.62773324451275,85.28261713558993,-8.042622222725141,1.1925282260960295,,,,3,0,3,3
1788937616.8798075,2878380689.0,-9.90234375,0.73828125,0.078125,-0.060546875,0.041015625,-0.001953125,28.9375,-2.8125,-25.4375,28.9375,-2.8125,-25.4375,-0.009231795325511032,-0.7034940344852975,0.0467556972814759,0.709101418818486,85.80229337929627,85.4395193055429,-97.2409781046099,0.50579833984375,0.5335693359375,0.46063232421875,-0.49725341796875,85.62773324451275,85.28261713558993,-8.042622222725141,1.2082309462836414,,,,3,0,3,3
1788937616.8894606,2878384671.0,-9.9375,0.73828125,0.078125,-0.05859375,0.0390625,-0.009765625,28.9375,-2.8125,-25.4375,28.9375,-2.8125,-25.4375,-0.009264704683419597,-0.7035476711282295,0.04646622995683604,0.7090668016278664,85.85288976637051,85.46093103590728,-97.16420778526836,0.50592041015625,0.53350830078125,0.4609375,-0.49700927734375,85.92887893450403,85.35283920438165,-7.7761590077369025,0.42593817337675266,,,,3,0,3,3
1788937616.8963637,2878392354.0,-9.90234375,0.703125,0.0390625,-0.056640625,0.0390625,-0.021484375,29.125,-5.0625,-25.0,29.125,-5.0625,-25.0,-0.009332104717585617,-0.7036661020537408,0.046628157063797665,0.7089377572191148,86.13080760345008,85.44435047438283,-96.89397539038048,0.50592041015625,0.53350830078125,0.4609375,-0.49700927734375,85.92887893450403,85.35283920438165,-7.7761590077369025,0.4002840708295026,,,,3,0,3,3
1788937616.8957665,2878396990.0,-9.9375,0.703125,0.0390625,-0.06640625,0.03515625,-0.03515625,29.0625,-3.6875,-25.1875,29.0625,-3.6875,-25.1875,-0.009213774716326882,-0.7037656085092387,0.04632038623247298,0.7088607031387565,86.2626466701116,85.48008097201127,-96.74673157227677,0.5059814453125,0.53338623046875,0.46124267578125,-0.49676513671875,86.13361892551976,85.34105167628502,-7.505857575307942,0.7336750516128414,,,,3,0,3,3
1788937616.9052932,2878401096.0,-9.9375,0.703125,0.0390625,-0.0625,0.033203125,-0.0390625,29.0625,-3.6875,-25.1875,29.0625,-3.6875,-25.1875,-0.00908849602953522,-0.7038504239703259,0.04605982806912379,0.708795084742379,86.3756817573622,85.5123429635848,-96.6226894907149,0.5059814453125,0.53338623046875,0.46124267578125,-0.49676513671875,86.13361892551976,85.34105167628502,-7.505857575307942,0.7619575374370846,,,,3,0,3,3
1788937616.9089098,2878408356.0,-9.9375,0.703125,0.078125,-0.064453125,0.025390625,-0.048828125,30.0625,-1.1875,-24.125,30.0625,-1.1875,-24.125,-0.00906753874964518,-0.7039337075766325,0.045413993387669986,0.7087543187050251,86.4173618710339,85.56709228884597,-96.53026575043586,0.5059814453125,0.53314208984375,0.46160888671875,-0.49664306640625,86.21915565956309,85.3395488031181,-7.343752681211136,1.0900649617743678,,,,3,0,3,3
1788937616.9089098,2878412462.0,-9.9375,0.6640625,0.078125,-0.064453125,0.0234375,-0.060546875,30.0625,-1.1875,-24.125,30.0625,-1.1875,-24.125,-0.009033384837511961,-0.7039786320338183,0.04503275866217449,0.7087344596147739,86.43274254334403,85.60110693849576,-96.48669795128748,0.5059814453125,0.53314208984375,0.46160888671875,-0.49664306640625,86.21915565956309,85.3395488031181,-7.343752681211136,1.1214568505757203,,,,3,0,3,3
1788937616.9203744,2878416121.0,-9.90234375,0.6640625,0.078125,-0.068359375,0.01953125,-0.06640625,31.5625,-4.625,-29.9375,31.5625,-4.625,-29.9375,-0.00893145886687897,-0.7039709896107809,0.044996849943068885,0.7087456231428368,86.40280687071929,85.61210636167036,-96.52197781419612,0.5059814453125,0.53289794921875,0.46197509765625,-0.49652099609375,86.30632549786928,85.33813045038242,-7.180077960911745,1.3220199330956552,,,,3,0,3,3
1788937616.9226313,2878420628.0,-9.90234375,0.5859375,0.078125,-0.0703125,0.017578125,-0.072265625,31.5625,-4.625,-29.9375,31.5625,-4.625,-29.9375,-0.008718180236155755,-0.7039711837543028,0.0448230553372185,0.7087590983452503,86.35390701899934,85.64327419152994,-96.57404997944508,0.5059814453125,0.53289794921875,0.46197509765625,-0.49652099609375,86.30632549786928,85.33813045038242,-7.180077960911745,1.3324518473793059,,,,3,0,3,3
1788937616.9260788,2878424410.0,-9.8984375,0.546875,0.1171875,-0.0625,0.025390625,-0.0703125,31.5625,-4.625,-29.9375,31.5625,-4.625,-29.9375,-0.00854852740582765,-0.703958649888954,0.044654162782506474,0.7087842744248114,86.28129925112599,85.67034077847065,-96.64669318515367,0.5059814453125,0.5325927734375,0.46240234375,-0.49652099609375,86.3722883165249,85.43019221634982,-7.127709517448814,0.8912026893105868,,,,3,0,3,3
1788937616.930014,2878428164.0,-9.83203125,0.546875,0.078125,-0.0625,0.025390625,-0.0703125,32.3125,-3.4375,-31.0,32.3125,-3.4375,-31.0,-0.008453743617501558,-0.7039930040586311,0.044313728937893045,0.7087726559927188,86.27831692695834,85.70582320283367,-96.62971627913626,0.5059814453125,0.5325927734375,0.46240234375,-0.49652099609375,86.3722883165249,85.43019221634982,-7.127709517448814,0.9241769091356907,,,,3,0,2,3
1788937616.930014,2878432270.0,-9.859375,0.546875,0.1171875,-0.0546875,0.037109375,-0.07421875,32.3125,-3.4375,-31.0,32.3125,-3.4375,-31.0,-0.008337946381530422,-0.704029537020851,0.043954885890338205,0.7087600846963041,86.27508369491316,85.74451159072201,-96.61319933838291,0.5059814453125,0.5325927734375,0.46240234375,-0.49652099609375,86.3722883165249,85.43019221634982,-7.127709517448814,0.9595623077596994,,,,3,0,2,3
1788937616.9368167,2878438782.0,-9.83203125,0.546875,0.1171875,-0.046875,0.048828125,-0.072265625,32.75,-2.8125,-30.25,32.75,-2.8125,-30.25,-0.008178520466651377,-0.7041282891431243,0.04338457609969069,0.7086989789663898,86.36184049424881,85.80460150170792,-96.49306057389911,0.505859375,0.53240966796875,0.46282958984375,-0.4964599609375,86.63013257295182,85.48265768198904,-6.851427355119872,0.8562507396791738,,,,3,0,2,3
1788937616.9387698,2878439559.0,-9.7890625,0.625,0.1171875,-0.046875,0.048828125,-0.072265625,32.75,-2.8125,-30.25,32.75,-2.8125,-30.25,-0.008163671728800434,-0.7041386346951787,0.043316222998483186,0.7086930523284815,86.36949259950967,85.81143781980623,-96.48106261496238,0.505859375,0.53240966796875,0.46282958984375,-0.4964599609375,86.63013257295182,85.48265768198904,-6.851427355119872,0.8640901512468532,,,,3,0,2,3
1788937616.9368167,2878444318.0,-9.7890625,0.6640625,0.1171875,-0.04296875,0.05078125,-0.080078125,32.75,-2.8125,-30.25,32.75,-2.8125,-30.25,-0.008069832854375071,-0.7042018593222298,0.042891069432433905,0.7086571634350133,86.415389711391,85.85406106511591,-96.4082551821342,0.50567626953125,0.5322265625,0.4632568359375,-0.49639892578125,86.89067537952991,85.49418452087396,-6.526429523460144,1.1555671046546458,,,,3,0,2,3
1788937616.9540224,2878448925.0,-9.75,0.6640625,0.1171875,-0.04296875,0.056640625,-0.083984375,31.4375,-4.3125,-30.9375,31.4375,-4.3125,-30.9375,-0.007959107978137179,-0.7042056624272609,0.04282715586547466,0.7086585019076885,86.40294728193163,85.86818445495615,-96.42448170367634,0.50567626953125,0.5322265625,0.4632568359375,-0.49639892578125,86.89067537952991,85.49418452087396,-6.526429523460144,1.161131157681552,,,,3,0,2,3
1788937616.9551067,2878451401.0,-9.7109375,0.625,0.1171875,-0.04296875,0.056640625,-0.083984375,31.4375,-4.3125,-30.9375,31.4375,-4.3125,-30.9375,-0.007874402064480849,-0.7042067624791974,0.0427728885765044,0.7086616325676988,86.38821816414963,85.87939494127977,-96.44166959777458,0.50567626953125,0.5322265625,0.4632568359375,-0.49639892578125,86.89067537952991,85.49418452087396,-6.526429523460144,1.1659381742695427,,,,3,0,2,3
1788937616.9551067,2878459290.0,-9.59765625,0.546875,0.1171875,-0.025390625,0.046875,-0.068359375,28.25,-4.9375,-24.4375,28.25,-4.9375,-24.4375,-0.007682612657272174,-0.7042877146478116,0.042887794354528816,0.7085763399622689,86.58000557021431,85.8867656481367,-96.27475035878193,0.50543212890625,0.53204345703125,0.4637451171875,-0.49639892578125,87.23392417376002,85.5570520094154,-6.1674695550970196,1.0499471152288875,,,,3,0,3,3
1788937616.9551067,2878463843.0,-9.55859375,0.5859375,0.1171875,-0.025390625,0.046875,-0.068359375,28.25,-4.9375,-24.4375,28.25,-4.9375,-24.4375,-0.007593506300157929,-0.7043343555966168,0.042957583405054005,0.7085267110112121,86.692956808085,85.88897878916738,-96.17468449950812,0.50543212890625,0.53204345703125,0.4637451171875,-0.49639892578125,87.23392417376002,85.5570520094154,-6.1674695550970196,1.044492263641775,,,,3,0,3,3
1788937616.9716794,2878467603.0,-9.59375,0.625,0.15625,-0.015625,0.04296875,-0.060546875,29.0625,-3.625,-24.8125,29.0625,-3.625,-24.8125,-0.007494262886908114,-0.7043034082938556,0.04288294092677007,0.7085630518640607,86.60166497034317,85.90257307108595,-96.26795942127957,0.5052490234375,0.53192138671875,0.464111328125,-0.496337890625,87.52401452239545,85.56749583982433,-5.827077350769816,1.2292704079520538,,,,3,0,3,3
1788937616.9716794,2878470732.0,-9.59375,0.73828125,0.15625,-0.00390625,0.04296875,-0.048828125,29.0625,-3.625,-24.8125,29.0625,-3.625,-24.8125,-0.007481974414004168,-0.704286058093292,0.04290901612294538,0.7085788486609244,86.5671179237757,85.90123196057014,-96.30561918524485,0.5052490234375,0.53192138671875,0.464111328125,-0.496337890625,87.52401452239545,85.56749583982433,-5.827077350769816,1.2274742725110204,,,,3,0,3,3
1788937616.9659503,2878478868.0,-9.5546875,0.81640625,0.15625,-0.005859375,0.041015625,-0.037109375,28.375,-4.1875,-25.3125,28.375,-4.1875,-25.3125,-0.007520015001905462,-0.7043063547870468,0.04313285559418894,0.7085446808418256,86.66088987211947,85.8804453753582,-96.22693542813094,0.505126953125,0.5318603515625,0.46435546875,-0.496337890625,87.75228166376725,85.62175943208828,-5.619738873992181,0.9631242668885127,,,,3,0,3,3
1788937616.9716794,2878483375.0,-9.5546875,0.81640625,0.15625,-0.0234375,0.041015625,-0.037109375,28.375,-4.1875,-25.3125,28.375,-4.1875,-25.3125,-0.0075684201973511694,-0.7043160225617733,0.0432277053704564,0.708528774903945,86.7048530479291,85.86904235050929,-96.18674958175873,0.505126953125,0.5318603515625,0.46435546875,-0.496337890625,87.75228166376725,85.62175943208828,-5.619738873992181,0.9550123616477788,,,,3,0,3,3
1788937616.9876046,2878486834.0,-9.51953125,0.77734375,0.1171875,-0.0234375,0.04296875,-0.033203125,29.125,-4.125,-24.875,29.125,-4.125,-24.875,-0.007608763435040277,-0.7043316381412025,0.043311748687186465,0.7085076870846059,86.75917846220096,85.85923565983697,-96.13597749801808,0.5050048828125,0.53179931640625,0.46466064453125,-0.49627685546875,88.06882360145251,85.67412689878189,-5.314191938942144,0.6353833752576052,,,,3,0,3,3
1788937616.9915397,2878490940.0,-9.55859375,0.77734375,0.0390625,-0.0234375,0.048828125,-0.03125,29.125,-4.125,-24.875,29.125,-4.125,-24.875,-0.007661429229957365,-0.7043983810755821,0.04342746370454536,0.7084336797728095,86.93396209154,85.84654279143349,-95.96631925649935,0.5050048828125,0.53179931640625,0.46466064453125,-0.49627685546875,88.06882360145251,85.67412689878189,-5.314191938942144,0.6211213495716374,,,,3,0,3,3
1788937616.9915397,2878498200.0,-9.59765625,0.85546875,0.078125,-0.025390625,0.044921875,-0.029296875,30.4375,-2.6875,-24.25,30.4375,-2.6875,-24.25,-0.007901108930884745,-0.7044428468754839,0.04309395601945329,0.7084071985223042,86.98166411259132,85.85457667113668,-95.87212031277306,0.5048828125,0.53179931640625,0.46490478515625,-0.49615478515625,88.40560606470949,85.6765951221545,-4.94898136099242,0.8005680322182721,,,,3,0,3,3
1788937617.0051064,2878502506.0,-9.59765625,0.85546875,0.078125,-0.041015625,0.05078125,-0.015625,30.4375,-2.6875,-24.25,30.4375,-2.6875,-24.25,-0.00809314525394383,-0.7044746995873484,0.04290198717139709,0.7083850069968726,87.02645895427428,85.85490854553056,-95.7961799004534,0.5048828125,0.53179931640625,0.46490478515625,-0.49615478515625,88.40560606470949,85.6765951221545,-4.94898136099242,0.8193572487734901,,,,3,0,3,3
1788937617.0051064,2878506942.0,-9.6328125,0.85546875,0.00390625,-0.0390625,0.052734375,-0.013671875,29.5,-4.0625,-24.5,29.5,-4.0625,-24.5,-0.008225577910468494,-0.7045660238226391,0.04301820232251469,0.708285600737255,87.25908433430446,85.83595459634276,-95.56225611161544,0.50482177734375,0.53173828125,0.4652099609375,-0.4959716796875,88.73263857147631,85.67361191935161,-4.573946986596133,0.967448582479374,,,,3,0,3,3
1788937617.0051064,2878510471.0,-9.671875,0.85546875,-0.03515625,-0.041015625,0.0546875,-0.009765625,29.5,-4.0625,-24.5,29.5,-4.0625,-24.5,-0.008334420374188493,-0.7046545738232515,0.043107399348025606,0.7081908084326201,87.47741686112448,85.8209848971339,-95.34234362901354,0.50482177734375,0.53173828125,0.4652099609375,-0.4959716796875,88.73263857147631,85.67361191935161,-4.573946986596133,0.9607366190118345,,,,3,0,3,3
1788937617.0141933,2878514054.0,-9.75390625,0.85546875,0.0390625,-0.046875,0.048828125,-0.01171875,29.5,-4.0625,-24.5,29.5,-4.0625,-24.5,-0.008452459986631591,-0.7047070903620775,0.04319699624604226,0.7081316913038905,87.6153079659291,85.80479723190255,-95.20216017569233,0.50482177734375,0.53173828125,0.4654541015625,-0.4957275390625,89.07762408342035,85.66364130144117,-4.188832947434757,1.0405808717864573,,,,3,0,3,3
1788937617.0181863,2878517807.0,-9.828125,0.81640625,0.00390625,-0.046875,0.048828125,-0.01171875,32.6875,-3.0,-28.625,32.6875,-3.0,-28.625,-0.00858309909903852,-0.7048042787455235,0.04295418161195886,0.7080481603350902,87.79200043542595,85.81481877244252,-94.99516905512044,0.50482177734375,0.53173828125,0.4654541015625,-0.4957275390625,89.07762408342035,85.66364130144117,-4.188832947434757,1.0570089033228802,,,,3,0,3,3
1788937617.0221794,2878522114.0,-9.8984375,0.81640625,-0.03515625,-0.037109375,0.044921875,0.00390625,32.6875,-3.0,-28.625,32.6875,-3.0,-28.625,-0.008727084332368863,-0.7049428946379197,0.042739977065302276,0.7079213569733745,88.0669726942343,85.82179962161786,-94.69113921996266,0.50482177734375,0.53173828125,0.4654541015625,-0.4957275390625,89.07762408342035,85.66364130144117,-4.188832947434757,1.0723014959394004,,,,3,0,3,3
1788937617.03603,2878529403.0,-9.90234375,0.77734375,0.0390625,-0.044921875,0.029296875,0.015625,32.4375,-2.8125,-30.3125,32.4375,-2.8125,-30.3125,-0.008943906946188095,-0.7050095393067871,0.042309805461662534,0.7078781225442455,88.1494055267783,85.83957675692014,-94.55621637616929,0.50482177734375,0.53173828125,0.4656982421875,-0.49554443359375,89.42256049536306,85.70304697003006,-3.8565670190275227,0.7679380284562188,,,,3,0,2,3
1788937617.0379832,2878530179.0,-9.98046875,0.73828125,0.00390625,-0.044921875,0.029296875,0.015625,32.4375,-2.8125,-30.3125,32.4375,-2.8125,-30.3125,-0.008961105194701493,-0.7050213757366576,0.04226311514594347,0.7078689055511912,88.16844892471015,85.84205938728316,-94.53198920560715,0.50482177734375,0.53173828125,0.4656982421875,-0.49554443359375,89.42256049536306,85.70304697003006,-3.8565670190275227,0.7728476769959398,,,,3,0,2,3
1788937617.0369737,2878534162.0,-9.98046875,0.73828125,0.00390625,-0.044921875,0.02734375,0.01953125,32.4375,-2.8125,-30.3125,32.4375,-2.8125,-30.3125,-0.00905504520536146,-0.7050789166418102,0.042028969042244825,0.7078243378302176,88.26060735263644,85.85386250599865,-94.41321165147065,0.5048828125,0.53173828125,0.46588134765625,-0.49530029296875,89.68253502083934,85.6893833330971,-3.5606313008391837,0.8600839582489374,,,,3,0,2,3
1788937617.0369737,2878538768.0,-9.90234375,0.73828125,-0.03515625,-0.046875,0.01953125,0.0234375,33.8125,-3.75,-29.8125,33.8125,-3.75,-29.8125,-0.009207998930058688,-0.7052228385688784,0.0419798314957332,0.7076818879017236,88.57835832731949,85.84663590917647,-94.07907644447951,0.5048828125,0.53173828125,0.46588134765625,-0.49530029296875,89.68253502083934,85.6893833330971,-3.5606313008391837,0.8655848129917472,,,,3,0,2,3
1788937617.0389268,2878541521.0,-9.86328125,0.73828125,-0.03515625,-0.046875,0.01953125,0.0234375,33.8125,-3.75,-29.8125,33.8125,-3.75,-29.8125,-0.009303104734656939,-0.705308448548731,0.04195322404226054,0.7075968991173847,88.76738645820468,85.84172824266794,-93.88018106345028,0.5048828125,0.53173828125,0.46588134765625,-0.49530029296875,89.68253502083934,85.6893833330971,-3.5606313008391837,0.8691341159397238,,,,3,0,2,3
1788937617.0349917,2878549181.0,-9.828125,0.77734375,-0.15234375,-0.04296875,0.001953125,0.03125,33.8125,-3.75,-29.8125,33.8125,-3.75,-29.8125,-0.009570510025929563,-0.7054932679598621,0.04197241810756627,0.70740792356275,89.186350002098,85.81974786843104,-93.44110511095644,0.50506591796875,0.53167724609375,0.4659423828125,-0.4951171875,89.67139326817221,85.67195987086482,-3.5401486847771775,0.893103030102525,,,,3,0,2,3
1788937617.0551398,2878549534.0,-9.828125,0.77734375,-0.15234375,-0.037109375,-0.015625,0.03515625,32.1875,-7.0625,-30.5,32.1875,-7.0625,-30.5,-0.009580657939985896,-0.7054932664424638,0.04198866622030641,0.7074068234805342,89.18890505455093,85.81761239243694,-93.43904659549361,0.50506591796875,0.53167724609375,0.4659423828125,-0.4951171875,89.67139326817221,85.67195987086482,-3.5401486847771775,0.89180357631006,,,,3,0,2,3
1788937617.057093,2878553687.0,-9.75390625,0.81640625,-0.1875,-0.037109375,-0.015625,0.03515625,32.1875,-7.0625,-30.5,32.1875,-7.0625,-30.5,-0.009706570387409044,-0.7054973061788024,0.042176206022354924,0.7073899215505742,89.2273373408861,85.79227642324769,-93.40563384878082,0.50506591796875,0.53167724609375,0.4659423828125,-0.4951171875,89.67139326817221,85.67195987086482,-3.5401486847771775,0.8772267615956727,,,,3,0,2,3
1788937617.057093,2878557446.0,-9.71484375,0.81640625,-0.15234375,-0.041015625,-0.033203125,0.02734375,30.0,-3.75,-25.0625,30.0,-3.75,-25.0625,-0.009843999357893377,-0.7055173125264232,0.042267363625520034,0.7073626279174517,89.28656359834119,85.7738915824135,-93.34267030789461,0.5052490234375,0.5316162109375,0.4659423828125,-0.4949951171875,89.5745083708296,85.65710838601078,-3.6154031512572855,0.870443134736671,,,,3,0,3,3
1788937617.057093,2878561753.0,-9.7109375,0.73828125,-0.15234375,-0.041015625,-0.05078125,0.041015625,30.0,-3.75,-25.0625,30.0,-3.75,-25.0625,-0.009982018706634552,-0.7055265739447926,0.04236334459693122,0.7073457144811334,89.32254057065684,85.75500400978224,-93.3032998236249,0.5052490234375,0.5316162109375,0.4659423828125,-0.4949951171875,89.5745083708296,85.65710838601078,-3.6154031512572855,0.8645688764623805,,,,3,0,3,3
1788937617.0716486,2878568912.0,-9.671875,0.81640625,-0.15234375,-0.037109375,-0.060546875,0.044921875,29.0625,-5.125,-25.3125,29.0625,-5.125,-25.3125,-0.010239896467771044,-0.7054266856067704,0.04270104882004555,0.7074213427539802,89.15846454609486,85.70622792374506,-93.47389198080484,0.505615234375,0.531494140625,0.4658203125,-0.49493408203125,89.21159706889011,85.68146209478836,-4.006910264046662,0.0,,,,3,0,3,3
1788937617.0716486,2878573218.0,-9.71484375,0.85546875,-0.11328125,-0.037109375,-0.06640625,0.044921875,29.0625,-5.125,-25.3125,29.0625,-5.125,-25.3125,-0.010401906099445331,-0.7053479098945135,0.04291083915255168,0.7074848311025216,89.02278573631018,85.67565480467601,-93.61347259679145,0.505615234375,0.531494140625,0.4658203125,-0.49493408203125,89.21159706889011,85.68146209478836,-4.006910264046662,0.0,,,,3,0,3,3
1788937617.0716486,2878576678.0,-9.75,0.81640625,-0.07421875,-0.025390625,-0.06640625,0.052734375,29.375,-5.125,-25.3125,29.375,-5.125,-25.3125,-0.010521373463628787,-0.7052789151811124,0.04310780041075822,0.7075398716999194,88.90717557882405,85.64960512400378,-93.73539085939197,0.5059814453125,0.53131103515625,0.46563720703125,-0.494873046875,88.67150749210344,85.61334611590894,-4.478405379213985,0.7074565762927849,,,,3,0,3,3
1788937617.0716486,2878581284.0,-9.75390625,0.81640625,-0.03515625,-0.037109375,-0.0625,0.05078125,29.375,-5.125,-25.3125,29.375,-5.125,-25.3125,-0.010696849100046665,-0.7051821284020359,0.043353134168836696,0.707618717219552,88.74296887457183,85.61489455713932,-93.90529424740356,0.5059814453125,0.53131103515625,0.46563720703125,-0.494873046875,88.67150749210344,85.61334611590894,-4.478405379213985,0.6880932331677344,,,,3,0,3,3
1788937617.0887928,2878589020.0,-9.7890625,0.77734375,-0.11328125,-0.044921875,-0.056640625,0.048828125,28.375,-4.1875,-25.3125,28.375,-4.1875,-25.3125,-0.01098103009309762,-0.7051222245990396,0.043662533464537585,0.7076550349754139,88.67133079680744,85.56645591135602,-93.97902090638206,0.50634765625,0.53118896484375,0.4654541015625,-0.49481201171875,88.23552257285913,85.59089454134904,-4.901541606106543,0.5588181614636101,,,,3,0,3,3
1788937617.0887928,2878592550.0,-9.7890625,0.703125,-0.11328125,-0.05078125,-0.0546875,0.046875,28.375,-4.1875,-25.3125,28.375,-4.1875,-25.3125,-0.011079703719180295,-0.7051083830543079,0.043773965369339606,0.7076604046206614,88.6619829691319,85.54936465911825,-93.98941890894885,0.50634765625,0.53118896484375,0.4654541015625,-0.49481201171875,88.23552257285913,85.59089454134904,-4.901541606106543,0.5502545385578386,,,,3,0,3,3
1788937617.0995116,2878596785.0,-9.75390625,0.6640625,-0.07421875,-0.048828125,-0.04296875,0.05078125,28.8125,-3.125,-24.5,28.8125,-3.125,-24.5,-0.011145140514817202,-0.7051159486091406,0.04363890896034555,0.7076601800897712,88.65859880195538,85.55503332397957,-93.976535768643,0.5067138671875,0.531005859375,0.46527099609375,-0.49468994140625,87.71004948097442,85.47648304872855,-5.307054835673528,1.350192041010116,,,,3,0,3,3
1788937617.10492,2878600415.0,-9.7890625,0.6640625,-0.03515625,-0.04296875,-0.033203125,0.05078125,28.8125,-3.125,-24.5,28.8125,-3.125,-24.5,-0.011181579223786563,-0.7051168212959823,0.04350837755291293,0.7076667730607573,88.64127591535438,85.56263343216855,-93.98030883209505,0.5067138671875,0.531005859375,0.46527099609375,-0.49468994140625,87.71004948097442,85.47648304872855,-5.307054835673528,1.3561819792777308,,,,3,0,3,3
1788937617.1009848,2878603898.0,-9.7890625,0.6640625,0.0390625,-0.04296875,-0.02734375,0.052734375,28.8125,-3.125,-24.5,28.8125,-3.125,-24.5,-0.011214111067403143,-0.7050686115772683,0.043372481230942964,0.7077226325004328,88.52040759113801,85.57060425579351,-94.0875088621913,0.507080078125,0.53094482421875,0.4652099609375,-0.49456787109375,87.54703080580846,85.54150617517844,-5.545321943183155,0.3975910531888831,,,,3,0,3,3
1788937617.10492,2878608628.0,-9.7890625,0.6640625,0.0390625,-0.04296875,-0.02734375,0.052734375,29.0625,-3.1875,-24.75,29.0625,-3.1875,-24.75,-0.011251927724868918,-0.7050029843627916,0.04319148771845474,0.7077984752390318,88.355710547358,85.58162716477139,-94.23444860957264,0.507080078125,0.53094482421875,0.4652099609375,-0.49456787109375,87.54703080580846,85.54150617517844,-5.545321943183155,0.42258580882809055,,,,3,0,3,3
1788937617.10492,2878612334.0,-9.7890625,0.6640625,0.078125,-0.04296875,-0.0234375,0.056640625,29.0625,-3.1875,-24.75,29.0625,-3.1875,-24.75,-0.011299178693019113,-0.7049259323446047,0.04307459334353972,0.7078815846433935,88.17699577061092,85.5865811402877,-94.39984536835767,0.507080078125,0.53094482421875,0.4652099609375,-0.49456787109375,87.54703080580846,85.54150617517844,-5.545321943183155,0.4378800244811338,,,,3,0,3,3
1788937617.1217484,2878619946.0,-9.7890625,0.6640625,0.0390625,-0.046875,-0.015625,0.07421875,32.5,-5.1875,-30.25,32.5,-5.1875,-30.25,-0.011534349541371648,-0.7048458955384163,0.0435172865181276,0.7079304119031788,88.089959281571,85.53112122353927,-94.5037625195922,0.50738525390625,0.5308837890625,0.465087890625,-0.49432373046875,87.30748324766827,85.42543683295963,-5.66908569083858,1.2597084850934857,,,,3,0,2,3
1788937617.1197953,2878624176.0,-9.7890625,0.625,0.0390625,-0.046875,-0.015625,0.07421875,32.5,-5.1875,-30.25,32.5,-5.1875,-30.25,-0.011621417918139434,-0.7048028037316484,0.04374767945776017,0.7079576901479641,88.04154405829458,85.50509720650568,-94.56382609828573,0.50738525390625,0.5308837890625,0.465087890625,-0.49432373046875,87.30748324766827,85.42543683295963,-5.66908569083858,1.2492128987540774,,,,3,0,2,3
1788937617.1217484,2878628159.0,-9.75,0.5859375,0.078125,-0.037109375,-0.017578125,0.0703125,33.25,-5.625,-29.8125,33.25,-5.625,-29.8125,-0.011688519541926484,-0.7047420988016866,0.043971473955986815,0.7080031512399148,87.95599265177619,85.48105073155953,-94.66210878607231,0.50775146484375,0.5308837890625,0.4649658203125,-0.49407958984375,87.16939100390503,85.39497591941887,-5.79291035432198,1.1481091900266842,,,,3,0,2,3
1788937617.1217484,2878632265.0,-9.7109375,0.5859375,0.078125,-0.03515625,-0.0234375,0.076171875,33.25,-5.625,-29.8125,33.25,-5.625,-29.8125,-0.011760126753585355,-0.7046705652513894,0.04421237200123892,0.7080581614874947,87.85246853951371,85.45514384498381,-94.77938809903937,0.50775146484375,0.5308837890625,0.4649658203125,-0.49407958984375,87.16939100390503,85.39497591941887,-5.79291035432198,1.1363052177813096,,,,3,0,2,3
1788937617.1362498,2878638978.0,-9.7109375,0.5859375,0.0390625,-0.03125,-0.033203125,0.0859375,32.1875,-3.6875,-30.0625,32.1875,-3.6875,-30.0625,-0.011839948973964329,-0.7045824413914633,0.04406992320454507,0.7081534019969719,87.65239739882223,85.4592895466182,-94.96142631119311,0.508056640625,0.53094482421875,0.46478271484375,-0.493896484375,87.0453982401483,85.36908007628809,-5.9217168006941625,1.005732826372356,,,,3,0,2,3
1788937617.1384323,2878639554.0,-9.67578125,0.5859375,0.0390625,-0.03125,-0.033203125,0.0859375,32.1875,-3.6875,-30.0625,32.1875,-3.6875,-30.0625,-0.011846675952590023,-0.7045750867644013,0.044057755257072416,0.7081613640841462,87.63564235182936,85.45965052293346,-94.97664840375467,0.508056640625,0.53094482421875,0.46478271484375,-0.493896484375,87.0453982401483,85.36908007628809,-5.9217168006941625,1.0063123998948462,,,,3,0,2,3
1788937617.1344972,2878643737.0,-9.6328125,0.625,0.0390625,-0.01953125,-0.03515625,0.091796875,32.1875,-3.6875,-30.0625,32.1875,-3.6875,-30.0625,-0.011893151196285725,-0.7045174550910769,0.043991231479525196,0.7082220555585158,87.50894844260601,85.46064838842938,-95.09417571165585,0.5084228515625,0.531005859375,0.46453857421875,-0.49371337890625,86.8487724339415,85.33936491828187,-6.127297156896771,0.8133907564091905,,,,3,0,2,3
1788937617.1384323,2878646990.0,-9.6328125,0.625,0.0390625,-0.01953125,-0.03515625,0.091796875,31.8125,-4.75,-30.5625,31.8125,-4.75,-30.5625,-0.011896925170782993,-0.7044650635253042,0.04418160379907522,0.7082622560390406,87.43543515587169,85.44443787850221,-95.18283928404252,0.5084228515625,0.531005859375,0.46453857421875,-0.49371337890625,86.8487724339415,85.33936491828187,-6.127297156896771,0.7985697262915757,,,,3,0,2,3
1788937617.1559622,2878651096.0,-9.6328125,0.625,0.0390625,-0.017578125,-0.041015625,0.09765625,31.8125,-4.75,-30.5625,31.8125,-4.75,-30.5625,-0.011901026556657153,-0.7043914448451646,0.044426285643787256,0.7083200993475589,87.32916308272206,85.42357983775946,-95.30864491449809,0.5084228515625,0.531005859375,0.46453857421875,-0.49371337890625,86.8487724339415,85.33936491828187,-6.127297156896771,0.7799938630606416,,,,3,0,2,3
1788937617.1586707,2878655179.0,-9.75,0.6640625,0.0390625,-0.01953125,-0.04296875,0.10546875,31.8125,-4.75,-30.5625,31.8125,-4.75,-30.5625,-0.011947745766523637,-0.7043150827968,0.04470676306382671,0.7083775976500035,87.22691907941693,85.39634657520757,-95.42987547132209,0.5087890625,0.53106689453125,0.4642333984375,-0.4935302734375,86.58021197639736,85.26623773779941,-6.364647222436577,0.9817487380102955,,,,3,0,2,3
1788937617.1586707,2878659762.0,-9.75390625,0.703125,0.00390625,-0.015625,-0.041015625,0.109375,28.375,-5.125,-25.4375,28.375,-5.125,-25.4375,-0.01212566350216605,-0.7042482763807218,0.045081295402784716,0.7084172572038471,87.16830747729114,85.35103996262387,-95.50447832482483,0.5087890625,0.53106689453125,0.4642333984375,-0.4935302734375,86.58021197639736,85.26623773779941,-6.364647222436577,0.9602643490424161,,,,3,0,3,3
1788937617.1567175,2878663715.0,-9.7890625,0.73828125,0.0390625,-0.015625,-0.041015625,0.109375,28.375,-5.125,-25.4375,28.375,-5.125,-25.4375,-0.012288322178686912,-0.7041773165460812,0.04540886082255951,0.7084640706195271,87.09397684196736,85.31069112670671,-95.59222432890333,0.5087890625,0.53106689453125,0.4642333984375,-0.4935302734375,86.58021197639736,85.26623773779941,-6.364647222436577,0.9429129705430859,,,,3,0,3,3
1788937617.1716852,2878667298.0,-9.828125,0.73828125,0.1171875,-0.0078125,-0.044921875,0.109375,29.125,-4.125,-24.875,29.125,-4.125,-24.875,-0.012389639270444855,-0.7040400417528683,0.045657906989705586,0.7085827206308993,86.87437964117247,85.28078150277308,-95.82383406038406,0.50921630859375,0.53118896484375,0.46392822265625,-0.4932861328125,86.41497261347452,85.22958539707658,-6.546906004552754,0.6044937646227573,,,,3,0,3,3
1788937617.1716852,2878670728.0,-9.828125,0.77734375,0.1171875,-0.009765625,-0.0390625,0.111328125,29.125,-4.125,-24.875,29.125,-4.125,-24.875,-0.01252128971219017,-0.703920027557351,0.045912573250747046,0.7086831786666709,86.69403342883243,85.24812775192208,-96.0141912074219,0.50921630859375,0.53118896484375,0.46392822265625,-0.4932861328125,86.41497261347452,85.22958539707658,-6.546906004552754,0.5823354199762386,,,,3,0,3,3
1788937617.1716852,2878679064.0,-9.9375,0.89453125,0.078125,-0.013671875,-0.033203125,0.115234375,29.0625,-2.6875,-24.75,29.0625,-2.6875,-24.75,-0.012959354642062503,-0.703770595931659,0.04581933043150692,0.7088297344130444,86.41319747764912,85.21825640378133,-96.25195613999269,0.5096435546875,0.53131103515625,0.46356201171875,-0.49310302734375,86.17806057815584,85.19458246449088,-6.810474614374613,0.0,,,,3,0,3,3
1788937617.1716852,2878682693.0,-9.9765625,0.9296875,0.00390625,-0.015625,-0.0390625,0.109375,29.0625,-2.6875,-24.75,29.0625,-2.6875,-24.75,-0.013165421690730655,-0.7037528650879131,0.0457755599724492,0.7088463688709052,86.38338983124024,85.20490347534262,-96.26150964665189,0.5096435546875,0.53131103515625,0.46356201171875,-0.49310302734375,86.17806057815584,85.19458246449088,-6.810474614374613,0.0,,,,3,0,3,3
1788937617.1884604,2878686553.0,-9.9375,0.9296875,0.00390625,-0.029296875,-0.041015625,0.091796875,29.5,-3.0625,-24.0625,29.5,-3.0625,-24.0625,-0.0134279192752074,-0.7037554695177377,0.04574239880416208,0.7088409998437225,86.39811980276835,85.1864285645105,-96.22281330843838,0.510009765625,0.5313720703125,0.4632568359375,-0.49285888671875,85.9305163193682,85.07899487379981,-6.979827186295373,0.9736292312928102,,,,3,0,3,3
1788937617.1884604,2878690859.0,-9.98046875,0.9296875,0.078125,-0.03515625,-0.046875,0.0859375,29.5,-3.0625,-24.0625,29.5,-3.0625,-24.0625,-0.013716643128394582,-0.7036396425019577,0.04566289038220311,0.7089555752252381,86.1797922637799,85.1678929035749,-96.41128713499985,0.510009765625,0.5313720703125,0.4632568359375,-0.49285888671875,85.9305163193682,85.07899487379981,-6.979827186295373,0.975863300127849,,,,3,0,3,3
1788937617.1865072,2878694918.0,-9.94140625,0.89453125,0.00390625,-0.037109375,-0.05078125,0.078125,29.5,-3.0625,-24.0625,29.5,-3.0625,-24.0625,-0.013920099404180467,-0.703628982562196,0.04556209564594511,0.7089686743230736,86.15353475177528,85.15942818895125,-96.41287147677667,0.51043701171875,0.5313720703125,0.4630126953125,-0.49267578125,85.67225718496864,85.04705025859046,-7.239042434353215,0.7755829582965091,,,,3,0,3,3
1788937617.1884604,2878698018.0,-9.9375,0.9296875,0.00390625,-0.037109375,-0.05078125,0.078125,29.5,-3.0625,-24.0625,29.5,-3.0625,-24.0625,-0.014113985514054996,-0.703624246255889,0.04551069240576889,0.7089728431826489,86.14729500783719,85.14785438464406,-96.39922398882972,0.51043701171875,0.5313720703125,0.4630126953125,-0.49267578125,85.67225718496864,85.04705025859046,-7.239042434353215,0.7789033186254165,,,,3,0,3,3
1788937617.203787,2878702225.0,-9.9375,0.9296875,0.00390625,-0.037109375,-0.052734375,0.06640625,29.5,-3.0625,-24.0625,29.5,-3.0625,-24.0625,-0.014356584692264886,-0.703616380728049,0.04542226768335113,0.7089814488727029,86.13136321446694,85.13528127860212,-96.38831452890972,0.51043701171875,0.5313720703125,0.4630126953125,-0.49267578125,85.67225718496864,85.04705025859046,-7.239042434353215,0.7857307840913397,,,,3,0,3,3
1788937617.2091317,2878706084.0,-9.859375,0.9296875,-0.03515625,-0.044921875,-0.0546875,0.05859375,29.3125,-3.4375,-23.4375,29.3125,-3.4375,-23.4375,-0.014572385142804022,-0.703615399856103,0.045503497336619805,0.7089728107669027,86.1583835314049,85.1113427365691,-96.35040000652407,0.5108642578125,0.53125,0.4627685546875,-0.4925537109375,85.24005066079785,84.97864610587399,-7.617397948651688,1.0711379436876505,,,,3,0,3,3
1788937617.2091317,2878710190.0,-9.8984375,0.9296875,-0.03515625,-0.03125,-0.056640625,0.05078125,29.3125,-3.4375,-23.4375,29.3125,-3.4375,-23.4375,-0.014765289005222245,-0.703615872961739,0.04558994443335544,0.7089627962900773,86.1874175979323,85.0888509206756,-96.31275099260738,0.5108642578125,0.53125,0.4627685546875,-0.4925537109375,85.24005066079785,84.97864610587399,-7.617397948651688,1.066904346423634,,,,3,0,3,3
1788937617.2071786,2878714220.0,-9.859375,0.89453125,-0.07421875,-0.03125,-0.056640625,0.05078125,29.3125,-3.4375,-23.4375,29.3125,-3.4375,-23.4375,-0.014909230159052917,-0.7036289105711281,0.04563476580952621,0.7089439605596916,86.22903807312991,85.07382795901972,-96.2631037389689,0.5108642578125,0.53125,0.4627685546875,-0.4925537109375,85.24005066079785,84.97864610587399,-7.617397948651688,1.065398975954869,,,,3,0,3,3
1788937617.2218404,2878718403.0,-9.83203125,0.89453125,-0.07421875,-0.037109375,-0.056640625,0.046875,32.875,-2.1875,-29.125,32.875,-2.1875,-29.125,-0.015030427898633278,-0.7035962171091985,0.04545958643152079,0.7089851024586376,86.14316735583134,85.07766149791765,-96.3249280829862,0.51123046875,0.5311279296875,0.462646484375,-0.49249267578125,84.94799101242994,84.99769346829099,-7.9378982463006835,0.4715735020393606,,,,3,0,3,3
1788937617.2218404,2878721632.0,-9.86328125,0.89453125,-0.03515625,-0.03515625,-0.05859375,0.048828125,32.875,-2.1875,-29.125,32.875,-2.1875,-29.125,-0.01512367236128369,-0.7035598358680583,0.04532223373977074,0.7090280156781232,86.05555672678713,85.08064945197268,-96.3938294753521,0.51123046875,0.5311279296875,0.462646484375,-0.49249267578125,84.94799101242994,84.99769346829099,-7.9378982463006835,0.48730328545557233,,,,3,0,3,3
1788937617.2218404,2878725892.0,-9.859375,0.89453125,-0.07421875,-0.03125,-0.05078125,0.04296875,31.4375,-3.875,-28.5,31.4375,-3.875,-28.5,-0.015265278567950518,-0.7035811413476203,0.04537349089401946,0.7090005607432995,86.11395494234633,85.06542458895356,-96.32811595512943,0.51153564453125,0.531005859375,0.46246337890625,-0.492431640625,84.58586185460156,84.93889292500758,-8.247765049582062,0.9306326531237094,,,,3,0,3,3
1788937617.2218404,2878730298.0,-9.90234375,0.89453125,-0.03515625,-0.03125,-0.048828125,0.0390625,31.4375,-3.875,-28.5,31.4375,-3.875,-28.5,-0.015414233634356185,-0.7036055925976584,0.045421998515540574,0.7089699665836471,86.17781508750694,85.04986710277574,-96.25612157395786,0.51153564453125,0.531005859375,0.46246337890625,-0.492431640625,84.58586185460156,84.93889292500758,-8.247765049582062,0.9289611622381676,,,,3,0,3,3
1788937617.2218404,2878733375.0,-9.86328125,0.85546875,0.00390625,-0.03125,-0.048828125,0.0390625,31.4375,-3.875,-28.5,31.4375,-3.875,-28.5,-0.015488587082905765,-0.7036271056391106,0.04541373705124111,0.7089475244100539,86.22094335304739,85.04483898464112,-96.2062959969123,0.51153564453125,0.531005859375,0.46246337890625,-0.492431640625,84.58586185460156,84.93889292500758,-8.247765049582062,0.9306580651136211,,,,3,0,3,3
1788937617.238283,2878737334.0,-9.8984375,0.81640625,-0.03515625,-0.0234375,-0.0390625,0.033203125,32.9375,-4.4375,-31.375,32.9375,-4.4375,-31.375,-0.015524738917684345,-0.7036602483602457,0.04547203206639901,0.7089101012532459,86.29532676239353,85.03770199138759,-96.13371544925802,0.5118408203125,0.53094482421875,0.4622802734375,-0.49237060546875,84.31518448251677,84.9193809167106,-8.517781833973046,0.8033559740127162,,,,3,0,2,3
1788937617.238283,2878741640.0,-9.86328125,0.81640625,0.00390625,-0.029296875,-0.0234375,0.02734375,32.9375,-4.4375,-31.375,32.9375,-4.4375,-31.375,-0.015542947715144136,-0.7037113799499707,0.04554209393942514,0.7088544478134031,86.40394781585253,85.03130327844312,-96.02930675249459,0.5118408203125,0.53094482421875,0.4622802734375,-0.49237060546875,84.31518448251677,84.9193809167106,-8.517781833973046,0.8007328347082723,,,,3,0,2,3
1788937617.2363298,2878744823.0,-9.90234375,0.81640625,0.00390625,-0.021484375,-0.015625,0.021484375,32.9375,-4.4375,-31.375,32.9375,-4.4375,-31.375,-0.015534231279382197,-0.7037589085395921,0.04558873402808907,0.7088044537384318,86.49995195329453,85.02889527330825,-95.93779552696863,0.51202392578125,0.53082275390625,0.46221923828125,-0.4923095703125,84.0885642519264,84.86902466999054,-8.683695291099912,1.1889248094393716,,,,3,0,2,3
1788937617.2549293,2878749329.0,-9.8984375,0.85546875,0.0390625,-0.0234375,-0.00390625,0.013671875,32.9375,-4.4375,-31.375,32.9375,-4.4375,-31.375,-0.015586787763837403,-0.7037822817987928,0.045778062869583434,0.7087678892509156,86.57961782234972,85.00973939471751,-95.86924287772656,0.51202392578125,0.53082275390625,0.46221923828125,-0.4923095703125,84.0885642519264,84.86902466999054,-8.683695291099912,1.180883376185027,,,,3,0,2,3
1788937617.2549293,2878753682.0,-9.86328125,0.85546875,0.00390625,-0.0234375,-0.00390625,0.013671875,32.9375,-4.4375,-31.375,32.9375,-4.4375,-31.375,-0.015637348430540685,-0.7038566061810706,0.045883664114507755,0.7086861369017697,86.73803284414433,84.99812188191713,-95.71530381599482,0.51202392578125,0.53082275390625,0.46221923828125,-0.4923095703125,84.0885642519264,84.86902466999054,-8.683695291099912,1.1789820954195525,,,,3,0,2,3
1788937617.2529762,2878757642.0,-9.859375,0.81640625,0.0390625,-0.0234375,-0.001953125,0.0078125,29.125,-4.5625,-24.625,29.125,-4.5625,-24.625,-0.01567132542972734,-0.703853874272589,0.046056782265554624,0.7086768699753685,86.76471144447483,84.98141788692853,-95.69992867847014,0.5120849609375,0.53082275390625,0.46221923828125,-0.49224853515625,84.09659508664656,84.86366230798563,-8.670493452931796,1.1575229472562787,,,,3,0,3,3
1788937617.2549293,2878761371.0,-9.83203125,0.81640625,0.0390625,-0.029296875,0.005859375,-0.00390625,29.125,-4.5625,-24.625,29.125,-4.5625,-24.625,-0.015695375643044185,-0.7038623343106131,0.04619642085213945,0.7086588461472068,86.80554431689455,84.96834832925016,-95.66848530502536,0.5120849609375,0.53082275390625,0.46221923828125,-0.49224853515625,84.09659508664656,84.86366230798563,-8.670493452931796,1.1518356918512547,,,,3,0,3,3
1788937617.268456,2878764554.0,-9.79296875,0.81640625,0.078125,-0.037109375,0.00390625,-0.009765625,29.125,-4.5625,-24.625,29.125,-4.5625,-24.625,-0.015718535832638447,-0.7038459932385503,0.04630069096554228,0.7086677581557029,86.79471814662205,84.95788535194399,-95.685901530299,0.51220703125,0.53070068359375,0.46234130859375,-0.4921875,84.07126776178396,84.89765325883788,-8.706784049916108,0.8166501711180215,,,,3,0,3,3
1788937617.270409,2878768907.0,-9.75390625,0.85546875,0.1171875,-0.037109375,0.00390625,-0.009765625,29.125,-4.5625,-24.625,29.125,-4.5625,-24.625,-0.015777658035821037,-0.7038016711863438,0.04643199214930071,0.7087018719089582,86.73940533733716,84.9419913811459,-95.74708514422525,0.51220703125,0.53070068359375,0.46234130859375,-0.4921875,84.07126776178396,84.89765325883788,-8.706784049916108,0.8069379510500191,,,,3,0,3,3
1788937617.2719176,2878773414.0,-9.79296875,0.81640625,0.1171875,-0.037109375,0.0,-0.015625,29.125,-4.5625,-24.625,29.125,-4.5625,-24.625,-0.015797781135199876,-0.7037452878223203,0.046555400952344964,0.708749317192793,86.65911664487264,84.9297189872132,-95.83576487522377,0.51220703125,0.53070068359375,0.46234130859375,-0.4921875,84.07126776178396,84.89765325883788,-8.706784049916108,0.7971553868657136,,,,3,0,3,3
1788937617.2797794,2878776396.0,-9.71484375,0.85546875,0.078125,-0.041015625,-0.00390625,-0.017578125,29.1875,-4.0,-24.1875,29.1875,-4.0,-24.1875,-0.015831325415951954,-0.7037045259204746,0.04663166032710211,0.7087840274651737,86.60010463911496,84.92034903132301,-95.89825128751045,0.51226806640625,0.53057861328125,0.4625244140625,-0.49212646484375,84.11007112834152,84.93587429271182,-8.674625826941057,0.22563300753652799,,,,3,0,3,3
1788937617.2797794,2878780703.0,-9.671875,0.85546875,0.1171875,-0.044921875,-0.01171875,-0.017578125,29.1875,-4.0,-24.1875,29.1875,-4.0,-24.1875,-0.01588520282567905,-0.7035985246969851,0.04668435028421854,0.7088845800368023,86.42008990190486,84.91035095389007,-96.07817936951123,0.51226806640625,0.53057861328125,0.4625244140625,-0.49212646484375,84.11007112834152,84.93587429271182,-8.674625826941057,0.19531100573185028,,,,3,0,3,3
1788937617.284475,2878784762.0,-9.671875,0.81640625,0.1171875,-0.04296875,-0.013671875,-0.0078125,29.5625,-3.5,-23.75,29.5625,-3.5,-23.75,-0.01587781509749525,-0.7035108085285962,0.04648775860298903,0.7089847146245405,86.22538329423904,84.92552694919118,-96.2575217157821,0.5123291015625,0.5303955078125,0.462646484375,-0.4920654296875,83.9931282568072,84.89487002651538,-8.708831165223447,1.0327792027910931,,,,3,0,3,3
1788937617.28645,2878788839.0,-9.71484375,0.81640625,0.078125,-0.04296875,-0.013671875,-0.0078125,29.5625,-3.5,-23.75,29.5625,-3.5,-23.75,-0.01584263763711058,-0.7034631512800388,0.04624582630999636,0.7090486084696607,86.0925836584129,84.94711359088565,-96.37352742856454,0.5123291015625,0.5303955078125,0.462646484375,-0.4920654296875,83.9931282568072,84.89487002651538,-8.708831165223447,1.0402172204603266,,,,3,0,3,3
1788937617.2884247,2878792068.0,-9.71484375,0.81640625,0.1171875,-0.044921875,-0.013671875,-0.0078125,29.5625,-3.5,-23.75,29.5625,-3.5,-23.75,-0.01583804952448434,-0.7033913982964711,0.046091381173433275,0.7091299468865494,85.9329071657556,84.95882979813275,-96.52103556099652,0.5123291015625,0.5303955078125,0.462646484375,-0.4920654296875,83.9931282568072,84.89487002651538,-8.708831165223447,1.0439549578523275,,,,3,0,3,3
1788937617.3010538,2878796128.0,-9.671875,0.81640625,0.15625,-0.044921875,-0.009765625,0.00390625,29.75,-2.6875,-24.625,29.75,-2.6875,-24.625,-0.015876511491356833,-0.7033411629540325,0.0458558664339359,0.7091941796087494,85.79967134902114,84.97387587760943,-96.63203087864686,0.51251220703125,0.53021240234375,0.4627685546875,-0.49200439453125,83.88479254721398,84.92692569580156,-8.819941779786715,0.6955690633659006,,,,3,0,3,3
1788937617.3037274,2878800034.0,-9.671875,0.85546875,0.15625,-0.04296875,-0.021484375,0.0078125,29.75,-2.6875,-24.625,29.75,-2.6875,-24.625,-0.015932330016074112,-0.7032716806015911,0.04564088620457447,0.7092756964894072,85.63554620534556,84.9855533509016,-96.77417682232365,0.51251220703125,0.53021240234375,0.4627685546875,-0.49200439453125,83.88479254721398,84.92692569580156,-8.819941779786715,0.7057492893819718,,,,3,0,3,3
1788937617.3035243,2878804064.0,-9.67578125,0.89453125,0.15625,-0.04296875,-0.021484375,0.0078125,29.75,-2.6875,-24.625,29.75,-2.6875,-24.625,-0.016011709379694955,-0.7031950300216739,0.04542514882499826,0.7093637506736471,85.45917816478138,84.99524353459002,-96.92659502420891,0.51251220703125,0.53021240234375,0.4627685546875,-0.49200439453125,83.88479254721398,84.92692569580156,-8.819941779786715,0.7166222615599712,,,,3,0,3,3
1788937617.3054774,2878808246.0,-9.67578125,0.89453125,0.1171875,-0.04296875,-0.015625,0.013671875,29.5,-4.0625,-24.5,29.5,-4.0625,-24.5,-0.01615194422638452,-0.7031172903967404,0.04556570535255604,0.7094286131377685,85.35407014009937,84.97141959312621,-97.03175087674781,0.51263427734375,0.53009033203125,0.46282958984375,-0.491943359375,83.79108018981692,84.92092369595629,-8.886834745889727,0.7673683607696657,,,,3,0,3,3
1788937617.3148577,2878812076.0,-9.71484375,0.85546875,0.1171875,-0.041015625,-0.015625,0.013671875,29.5,-4.0625,-24.5,29.5,-4.0625,-24.5,-0.0162454462866435,-0.7030372153987141,0.04569598029147516,0.7094974535715903,85.24022171605142,84.95212496189359,-97.14860016783548,0.51263427734375,0.53009033203125,0.46282958984375,-0.491943359375,83.79108018981692,84.92092369595629,-8.886834745889727,0.7566681587848032,,,,3,0,3,3
1788937617.3195827,2878816235.0,-9.671875,0.81640625,0.15625,-0.046875,-0.009765625,0.01953125,32.3125,-5.0,-29.25,32.3125,-5.0,-29.25,-0.01632999502258983,-0.7029532527547143,0.045832402228809105,0.7095699025536989,85.1207602005992,84.93297189309392,-97.27228755363821,0.5128173828125,0.52996826171875,0.462890625,-0.4918212890625,83.70603501102607,84.90967694269905,-8.94000291963662,0.7850732366021925,,,,3,0,3,3
1788937617.3218396,2878820142.0,-9.7109375,0.77734375,0.1171875,-0.04296875,-0.009765625,0.015625,32.3125,-5.0,-29.25,32.3125,-5.0,-29.25,-0.01635488843363558,-0.7028945486062175,0.045971570959994226,0.7096184790628379,85.04377150260042,84.91881375460979,-97.35856004828354,0.5128173828125,0.52996826171875,0.462890625,-0.4918212890625,83.70603501102607,84.90967694269905,-8.94000291963662,0.7759821219122348,,,,3,0,3,3
1788937617.3237567,2878824171.0,-9.7109375,0.77734375,0.1171875,-0.04296875,-0.009765625,0.015625,32.3125,-5.0,-29.25,32.3125,-5.0,-29.25,-0.016376794244496402,-0.702834356059473,0.046114115712993585,0.7096683428790862,84.9650181413737,84.90458948754417,-97.44711368140072,0.5128173828125,0.52996826171875,0.462890625,-0.4918212890625,83.70603501102607,84.90967694269905,-8.94000291963662,0.7670158599381297,,,,3,0,3,3
1788937617.3257098,2878827378.0,-9.7109375,0.77734375,0.0390625,-0.041015625,-0.009765625,0.02734375,31.8125,-3.6875,-30.125,31.8125,-3.6875,-30.125,-0.016393450699059443,-0.7028526022920308,0.04595750623385933,0.7096600466746471,84.96818886255147,84.9161075411582,-97.42987578556156,0.51300048828125,0.52984619140625,0.462890625,-0.49169921875,83.5532654405916,84.85832934029187,-9.022714611944888,1.1863445214137278,,,,3,0,3,3
1788937617.3257098,2878831684.0,-9.75390625,0.81640625,0.078125,-0.025390625,-0.009765625,0.0234375,31.8125,-3.6875,-30.125,31.8125,-3.6875,-30.125,-0.01640516768790486,-0.7028426699903146,0.04574917995284416,0.7096830731021133,84.90968167728656,84.93166789775906,-97.4705174318321,0.51300048828125,0.52984619140625,0.462890625,-0.49169921875,83.5532654405916,84.85832934029187,-9.022714611944888,1.1929389108292725,,,,3,0,3,3
1788937617.3364198,2878835067.0,-9.75390625,0.81640625,0.078125,-0.005859375,-0.01171875,0.03125,32.5,-3.5625,-32.0625,32.5,-3.5625,-32.0625,-0.01641608411376903,-0.7028336144536027,0.045614435648894586,0.7097004620520456,84.86720068392734,84.94141534198057,-97.50117276004836,0.51318359375,0.52984619140625,0.462890625,-0.4915771484375,83.57538874552192,84.88406814793343,-9.033272996343925,0.7384482856733219,,,,3,0,2,3
1788937617.3366802,2878839373.0,-9.79296875,0.85546875,0.078125,-0.01171875,-0.015625,0.0234375,32.5,-3.5625,-32.0625,32.5,-3.5625,-32.0625,-0.01645703690119671,-0.7028169249432368,0.04541868333589323,0.7097285954178535,84.80092149174544,84.95349200494744,-97.54823840436306,0.51318359375,0.52984619140625,0.462890625,-0.4915771484375,83.57538874552192,84.88406814793343,-9.033272996343925,0.7490304112347085,,,,3,0,2,3
1788937617.3386333,2878843326.0,-9.75390625,0.9296875,0.1171875,-0.01171875,-0.015625,0.0234375,32.5,-3.5625,-32.0625,32.5,-3.5625,-32.0625,-0.01658962458669804,-0.7027501930635538,0.04529413093388709,0.7097995436798717,84.66544190012657,84.95159262866835,-97.6628594641852,0.51318359375,0.52984619140625,0.462890625,-0.4915771484375,83.57538874552192,84.88406814793343,-9.033272996343925,0.7536764011842273,,,,3,0,2,3
1788937617.3529768,2878847485.0,-9.79296875,0.9296875,0.1171875,-0.013671875,-0.005859375,0.02734375,32.5625,-5.5625,-29.9375,32.5625,-5.5625,-29.9375,-0.01668461986379029,-0.7027171833384347,0.045517777513734016,0.7098156913108555,84.65897849047825,84.92546306371256,-97.67978315417615,0.51324462890625,0.52984619140625,0.46282958984375,-0.49151611328125,83.51646498123607,84.8387604538813,-9.049069689537799,1.1218348040922654,,,,3,0,2,3
1788937617.3554494,2878851215.0,-9.83203125,0.9296875,0.078125,-0.021484375,-0.009765625,0.015625,32.5625,-5.5625,-29.9375,32.5625,-5.5625,-29.9375,-0.016761720826153986,-0.7026971388237544,0.04569339498342461,0.7098224351616002,84.66484199502653,84.90485132445457,-97.68193054081162,0.51324462890625,0.52984619140625,0.46282958984375,-0.49151611328125,83.51646498123607,84.8387604538813,-9.049069689537799,1.1144849364326643,,,,3,0,2,3
1788937617.360554,2878855575.0,-9.859375,0.9296875,0.0390625,-0.0234375,-0.01171875,0.013671875,32.5625,-5.5625,-29.9375,32.5625,-5.5625,-29.9375,-0.016848493664335492,-0.7026873974625596,0.045888458073813324,0.7098174407015831,84.69395443533867,84.8820951083266,-97.6616240862009,0.51336669921875,0.52978515625,0.46282958984375,-0.491455078125,83.44318660847357,84.83132981421399,-9.108850911373288,1.1028279012920357,,,,3,0,2,3
1788937617.3609333,2878858951.0,-9.83203125,0.9296875,0.1171875,-0.0234375,-0.01171875,0.013671875,32.5625,-5.5625,-29.9375,32.5625,-5.5625,-29.9375,-0.016916828310465384,-0.702653855644367,0.046042753111451215,0.7098390274942181,84.67065374571976,84.86364770157881,-97.69191547593692,0.51336669921875,0.52978515625,0.46282958984375,-0.491455078125,83.44318660847357,84.83132981421399,-9.108850911373288,1.0966708309836777,,,,3,0,2,3
1788937617.3628864,2878862381.0,-9.859375,0.9296875,0.15625,-0.013671875,-0.009765625,0.01171875,32.5625,-5.5625,-29.9375,32.5625,-5.5625,-29.9375,-0.016970599025419954,-0.7026096680881105,0.046204905842971565,0.7098709458442962,84.62898862779655,84.84554544594015,-97.74239016228273,0.51336669921875,0.52978515625,0.46282958984375,-0.491455078125,83.44318660847357,84.83132981421399,-9.108850911373288,1.0903758861489217,,,,3,0,2,3
1788937617.3702917,2878866640.0,-9.828125,0.89453125,0.15625,-0.017578125,-0.009765625,0.009765625,29.1875,-4.0,-24.1875,29.1875,-4.0,-24.1875,-0.017039346900175053,-0.7025092961789516,0.04634419417515716,0.7099595517391288,84.48463557040851,84.82701447424871,-97.89248335695686,0.51348876953125,0.52978515625,0.46282958984375,-0.49139404296875,83.45672639526163,84.86215574522308,-9.132837815274675,0.5638479065846967,,,,3,0,3,3
1788937617.3716571,2878870746.0,-9.86328125,0.89453125,0.1171875,-0.029296875,-0.0078125,0.009765625,29.1875,-4.0,-24.1875,29.1875,-4.0,-24.1875,-0.01712231526926903,-0.702444796682831,0.046503846041202716,0.7100109338851143,84.41016904764462,84.80636772283161,-97.97319054484083,0.51348876953125,0.52978515625,0.46282958984375,-0.49139404296875,83.45672639526163,84.86215574522308,-9.132837815274675,0.5522315407181424,,,,3,0,3,3
1788937617.3716571,2878874606.0,-9.859375,0.9296875,0.15625,-0.01953125,0.001953125,0.017578125,29.1875,-4.0,-24.1875,29.1875,-4.0,-24.1875,-0.01721982138468698,-0.7023762410179653,0.046645465142589604,0.7100671055517106,84.3268012421124,84.78590707386995,-98.06015657831794,0.51361083984375,0.52972412109375,0.46282958984375,-0.4913330078125,83.38380743187393,84.85470569028662,-9.192281830616881,0.5325053239278312,,,,3,0,3,3
1788937617.3716571,2878878682.0,-9.83203125,0.9296875,0.1171875,-0.01953125,0.001953125,0.017578125,29.1875,-4.0,-24.1875,29.1875,-4.0,-24.1875,-0.017331697511675164,-0.7023345958739841,0.04682774839886966,0.7100935781147324,84.30089147963542,84.76155687258415,-98.09180168370376,0.51361083984375,0.52972412109375,0.46282958984375,-0.4913330078125,83.38380743187393,84.85470569028662,-9.192281830616881,0.5215810288670871,,,,3,0,3,3
1788937617.385923,2878882889.0,-9.7890625,0.96875,0.0390625,-0.01953125,-0.001953125,0.015625,29.1875,-4.0,-24.1875,29.1875,-4.0,-24.1875,-0.017459132416635586,-0.7023652208822827,0.04699436554350903,0.7100491566063604,84.39941830074741,84.73860107481408,-97.99647576121369,0.51361083984375,0.52972412109375,0.46282958984375,-0.4913330078125,83.38380743187393,84.85470569028662,-9.192281830616881,0.5150251364486246,,,,3,0,3,3
1788937617.387876,2878886171.0,-9.79296875,0.9296875,0.1171875,-0.025390625,0.0,0.01953125,29.1875,-4.5625,-24.5625,29.1875,-4.5625,-24.5625,-0.017540090356001622,-0.7023431587932439,0.04714727017654644,0.7100588478721542,84.39896374532007,84.719459957321,-98.00278594549789,0.513671875,0.5296630859375,0.46282958984375,-0.4912109375,83.31051333141508,84.77055407336708,-9.162322766894075,1.362459886923302,,,,3,0,3,3
1788937617.387876,2878889878.0,-9.79296875,0.9296875,0.078125,-0.025390625,-0.00390625,0.013671875,29.1875,-4.5625,-24.5625,29.1875,-4.5625,-24.5625,-0.017621502823899723,-0.702334886854034,0.04731270061211093,0.710054010415227,84.42500954751756,84.69954483883008,-97.98357606884358,0.513671875,0.5296630859375,0.46282958984375,-0.4912109375,83.31051333141508,84.77055407336708,-9.162322766894075,1.3600248801649124,,,,3,0,3,3
1788937617.385923,2878893907.0,-9.75390625,0.9296875,0.078125,-0.025390625,-0.00390625,0.013671875,29.1875,-4.5625,-24.5625,29.1875,-4.5625,-24.5625,-0.01771034436394551,-0.7023256624496779,0.047492474552613524,0.7100489225595664,84.4527945230818,84.6778682006577,-97.96318993120438,0.513671875,0.5296630859375,0.46282958984375,-0.4912109375,83.31051333141508,84.77055407336708,-9.162322766894075,1.3577457163338404,,,,3,0,3,3
1788937617.387876,2878898090.0,-9.828125,0.89453125,0.15625,-0.01953125,-0.00390625,0.009765625,28.8125,-4.0625,-24.5625,28.8125,-4.0625,-24.5625,-0.017748255333824004,-0.702227742701106,0.04761139916440747,0.7101368540521763,84.31152418817285,84.66344431906954,-98.11104742256107,0.5137939453125,0.5296630859375,0.462890625,-0.49114990234375,83.3911380211455,84.84083933770522,-9.15694858650055,0.4824512147056209,,,,3,0,3,3
1788937617.4049287,2878901720.0,-9.83203125,0.9296875,0.1171875,-0.029296875,-0.0078125,0.017578125,28.8125,-4.0625,-24.5625,28.8125,-4.0625,-24.5625,-0.017840686483267847,-0.7021756549397408,0.047765360714442234,0.7101757034928547,84.26142754408622,84.64271406617664,-98.16615681954832,0.5137939453125,0.5296630859375,0.462890625,-0.49114990234375,83.3911380211455,84.84083933770522,-9.15694858650055,0.4769910832226781,,,,3,0,3,3
1788937617.4105685,2878905979.0,-9.828125,0.89453125,0.15625,-0.02734375,0.001953125,0.015625,29.1875,-5.0,-24.3125,29.1875,-5.0,-24.3125,-0.017916658721951768,-0.7021385575498484,0.047954040755444,0.7101977536695568,84.24297734195518,84.62082280298127,-98.19377343816198,0.513916015625,0.52960205078125,0.462890625,-0.49102783203125,83.32280665955459,84.79248655543914,-9.164641429087828,0.9986982148447247,,,,3,0,3,3
1788937617.4125733,2878909985.0,-9.75,0.89453125,0.0390625,-0.02734375,-0.001953125,0.0078125,29.1875,-5.0,-24.3125,29.1875,-5.0,-24.3125,-0.017976196101842448,-0.702152443837584,0.04811583869703477,0.710171576489159,84.3044905065628,84.6033933582253,-98.14057481164296,0.513916015625,0.52960205078125,0.462890625,-0.49102783203125,83.32280665955459,84.79248655543914,-9.164641429087828,0.9977098170932257,,,,3,0,3,3
1788937617.4142644,2878913915.0,-9.75390625,0.9296875,0.0390625,-0.02734375,-0.001953125,0.0078125,29.1875,-5.0,-24.3125,29.1875,-5.0,-24.3125,-0.018046837245275615,-0.7021638462707159,0.04827493311540525,0.7101477138514634,84.36184945728016,84.58523536393645,-98.09041103521602,0.513916015625,0.52960205078125,0.462890625,-0.49102783203125,83.32280665955459,84.79248655543914,-9.164641429087828,0.9971433040124282,,,,3,0,3,3
1788937617.421847,2878918198.0,-9.83203125,0.9296875,0.0390625,-0.02734375,-0.00390625,0.017578125,33.4375,-2.3125,-29.75,33.4375,-2.3125,-29.75,-0.018100919944262044,-0.7021858347739572,0.04804907574307622,0.7101399132989274,84.35826419612654,84.59935839553934,-98.07126853795003,0.5140380859375,0.529541015625,0.46295166015625,-0.490966796875,83.31721727336242,84.82489411616949,-9.19460081145724,0.49292768946992305,,,,3,0,2,3
1788937617.421847,2878921528.0,-9.79296875,0.9296875,0.0390625,-0.03125,0.0,0.0078125,33.4375,-2.3125,-29.75,33.4375,-2.3125,-29.75,-0.018137773464049954,-0.7022083415449976,0.04785727190440065,0.7101296696831214,84.36106481862502,84.61215485398544,-98.04990274109079,0.5140380859375,0.529541015625,0.46295166015625,-0.490966796875,83.31721727336242,84.82489411616949,-9.19460081145724,0.49716914513740457,,,,3,0,2,3
1788937617.421847,2878926087.0,-9.83203125,0.85546875,0.078125,-0.029296875,0.0078125,0.00390625,33.4375,-2.3125,-29.75,33.4375,-2.3125,-29.75,-0.018157615472143344,-0.7022379236807605,0.04759154773488955,0.7101177677886238,84.35975405291818,84.63235907019894,-98.02802406298457,0.51416015625,0.52947998046875,0.4630126953125,-0.4908447265625,83.315818537968,84.81638227954207,-9.173181863882974,0.5324745917340464,,,,3,0,2,3
1788937617.421847,2878929217.0,-9.859375,0.81640625,0.1171875,-0.0234375,0.015625,-0.0078125,33.4375,-2.3125,-29.75,33.4375,-2.3125,-29.75,-0.018146260715695476,-0.7022595949933008,0.04740423543063271,0.7101091556409622,84.35818649780349,84.6486521660526,-98.01529951345562,0.51416015625,0.52947998046875,0.4630126953125,-0.4908447265625,83.315818537968,84.81638227954207,-9.173181863882974,0.5377653750472515,,,,3,0,2,3
1788937617.421847,2878933570.0,-9.859375,0.85546875,0.078125,-0.0234375,0.015625,-0.0078125,33.4375,-2.3125,-29.75,33.4375,-2.3125,-29.75,-0.018139601390507732,-0.7023012049831071,0.04714123827012501,0.7100856821504208,84.37615315365736,84.67099765661702,-97.97651370585724,0.51416015625,0.52947998046875,0.4630126953125,-0.4908447265625,83.315818537968,84.81638227954207,-9.173181863882974,0.5469713567755916,,,,3,0,2,3
1788937617.4382975,2878937329.0,-9.86328125,0.77734375,0.1171875,-0.021484375,0.017578125,-0.00390625,31.5625,-5.625,-30.375,31.5625,-5.625,-30.375,-0.018095399587377492,-0.7023060005450319,0.047280509941841124,0.710072807176739,84.40866663776463,84.66350940242582,-97.95889324975582,0.51416015625,0.5294189453125,0.463134765625,-0.49078369140625,83.36747404260211,84.81700600722503,-9.09915156604222,0.6631035878376651,,,,3,0,2,3
1788937617.4382975,2878941059.0,-9.86328125,0.77734375,0.078125,-0.01953125,0.01953125,-0.009765625,31.5625,-5.625,-30.375,31.5625,-5.625,-30.375,-0.018040527440973397,-0.702335285469739,0.0474109975810964,0.7100365367093138,84.4805398049285,84.65804253297185,-97.90206433437368,0.51416015625,0.5294189453125,0.463134765625,-0.49078369140625,83.36747404260211,84.81700600722503,-9.09915156604222,0.661296218256318,,,,3,0,2,3
1788937617.4505584,2878945218.0,-9.86328125,0.77734375,0.1171875,-0.013671875,0.02734375,-0.00390625,32.5625,-4.125,-29.75,32.5625,-4.125,-29.75,-0.017936758224389195,-0.7023609636870431,0.04722247844311959,0.7100263283306449,84.47838681037926,84.68192958244528,-97.89731816756482,0.51416015625,0.5294189453125,0.4632568359375,-0.49066162109375,83.5093904994313,84.81464379742653,-8.938331305792182,0.7256967924040884,,,,3,0,2,3
1788937617.4540684,2878949525.0,-9.859375,0.81640625,0.1171875,-0.009765625,0.0234375,-0.017578125,32.5625,-4.125,-29.75,32.5625,-4.125,-29.75,-0.017810717899138868,-0.7023736449108936,0.04701318280051617,0.7100308457422597,84.44772338389089,84.70902096092222,-97.92120087676702,0.51416015625,0.5294189453125,0.4632568359375,-0.49066162109375,83.5093904994313,84.81464379742653,-8.938331305792182,0.7310594337051053,,,,3,0,2,3
1788937617.454902,2878953201.0,-9.859375,0.81640625,0.078125,-0.009765625,0.0234375,-0.017578125,32.5625,-4.125,-29.75,32.5625,-4.125,-29.75,-0.01769422409302397,-0.7024261455421567,0.046830570846444694,0.7099938887953409,84.49243485735035,84.73396468163175,-97.87110137234458,0.51416015625,0.5294189453125,0.4632568359375,-0.49066162109375,83.5093904994313,84.81464379742653,-8.938331305792182,0.7376482137444393,,,,3,0,2,3
1788937617.454902,2878957260.0,-9.83203125,0.85546875,0.1171875,-0.005859375,0.029296875,-0.017578125,28.25,-3.3125,-25.9375,28.25,-3.3125,-25.9375,-0.01762635644261743,-0.7024479270060375,0.046613294253230124,0.7099883253986224,84.48099799746683,84.7571946865308,-97.87039461894844,0.51409912109375,0.5294189453125,0.46337890625,-0.4906005859375,83.64294088809626,84.81739351211883,-8.79083726719779,0.8204224734011766,,,,3,0,3,3
1788937617.454902,2878960590.0,-9.828125,0.89453125,0.078125,-0.0078125,0.025390625,-0.02734375,28.25,-3.3125,-25.9375,28.25,-3.3125,-25.9375,-0.017592774732608885,-0.7024992718465428,0.0464066427887102,0.7099518933261364,84.5265867139106,84.7773756787125,-97.81074588410127,0.51409912109375,0.5294189453125,0.46337890625,-0.4906005859375,83.64294088809626,84.81739351211883,-8.79083726719779,0.8273618368431598,,,,3,0,3,3
1788937617.454902,2878964550.0,-9.828125,0.89453125,0.15625,-0.01953125,0.015625,-0.033203125,28.25,-3.3125,-25.9375,28.25,-3.3125,-25.9375,-0.017570869880315643,-0.7024556328475069,0.046207536500800304,0.7100085999359337,84.40766506416531,84.79423075821465,-97.91527571542643,0.51397705078125,0.5294189453125,0.46356201171875,-0.4906005859375,83.83617679600087,84.86524562730224,-8.626273253371139,0.31803212117049945,,,,3,0,3,3
1788937617.4712522,2878968526.0,-9.828125,0.89453125,0.1171875,-0.01953125,0.015625,-0.033203125,28.25,-3.3125,-25.9375,28.25,-3.3125,-25.9375,-0.017550584212750003,-0.7024409146069842,0.04596327155305843,0.7100395173143778,84.33010984547714,84.81510101076822,-97.97464074152138,0.51397705078125,0.5294189453125,0.46356201171875,-0.4906005859375,83.83617679600087,84.86524562730224,-8.626273253371139,0.3373740848676293,,,,3,0,3,3
1788937617.4737682,2878972732.0,-9.828125,0.85546875,0.1953125,-0.021484375,0.015625,-0.033203125,28.25,-3.3125,-25.9375,28.25,-3.3125,-25.9375,-0.01750702036445073,-0.7023865074325174,0.045768293136988894,0.7101070072587903,84.18970043982527,84.83312376416607,-98.10274991698972,0.51397705078125,0.5294189453125,0.46356201171875,-0.4906005859375,83.83617679600087,84.86524562730224,-8.626273253371139,0.3528028822350812,,,,3,0,3,3
1788937617.4737682,2878976992.0,-9.828125,0.89453125,0.1171875,-0.0234375,0.013671875,-0.03515625,29.375,-2.1875,-24.625,29.375,-2.1875,-24.625,-0.017474736912889845,-0.7024108371347979,0.045470383509254975,0.7101028754123863,84.16830658186392,84.85998823395444,-98.1025703617752,0.513916015625,0.529296875,0.4637451171875,-0.4906005859375,83.86238409702501,84.8728303745663,-8.56992440043104,0.6481388854562116,,,,3,0,3,3
1788937617.4737682,2878980898.0,-9.83203125,0.85546875,0.15625,-0.02734375,0.021484375,-0.029296875,29.375,-2.1875,-24.625,29.375,-2.1875,-24.625,-0.01744922216615885,-0.7024302111155349,0.04520558016068041,0.7101012453730223,84.14554950712407,84.88356848038885,-98.10589419667362,0.513916015625,0.529296875,0.4637451171875,-0.4906005859375,83.86238409702501,84.8728303745663,-8.56992440043104,0.6622072407279032,,,,3,0,3,3
1788937617.4865968,2878984957.0,-9.79296875,0.85546875,0.1171875,-0.0390625,0.015625,-0.029296875,28.5,-1.625,-24.0625,28.5,-1.625,-24.0625,-0.01744215601563079,-0.7024588590205306,0.044907276519358254,0.7100920074840406,84.13417660677435,84.90852654935722,-98.09361888592538,0.513916015625,0.5291748046875,0.46392822265625,-0.49053955078125,83.89722267922747,84.87528623869592,-8.500006961093318,0.8350407624343766,,,,3,0,3,3
1788937617.4885645,2878987857.0,-9.75390625,0.81640625,0.078125,-0.0390625,0.015625,-0.029296875,28.5,-1.625,-24.0625,28.5,-1.625,-24.0625,-0.017431361766722196,-0.7024870348012009,0.04469407925739649,0.7100778498464149,84.13950816828014,84.92697656870858,-98.07185183308523,0.513916015625,0.5291748046875,0.46392822265625,-0.49053955078125,83.89722267922747,84.87528623869592,-8.500006961093318,0.8450316626344181,,,,3,0,3,3
1788937617.4885645,2878992164.0,-9.75390625,0.85546875,0.078125,-0.037109375,0.021484375,-0.0234375,28.5,-1.625,-24.0625,28.5,-1.625,-24.0625,-0.017432821979082653,-0.7025374586796731,0.044387779258942654,0.7100471399296047,84.16709405480574,84.9523157301362,-98.01927818836343,0.513916015625,0.5291748046875,0.46392822265625,-0.49053955078125,83.89722267922747,84.87528623869592,-8.500006961093318,0.8603939590350255,,,,3,0,3,3
1788937617.4994195,2878996123.0,-9.75390625,0.85546875,0.1171875,-0.04296875,0.015625,-0.009765625,27.8125,-4.0,-24.6875,27.8125,-4.0,-24.6875,-0.017492406002186305,-0.7025259289203775,0.044506058316997,0.7100496783323682,84.1763457540043,84.9378573647318,-98.01480014918002,0.513916015625,0.529052734375,0.46417236328125,-0.49041748046875,84.00472111873684,84.87657675439503,-8.348114162771891,1.0006379508378498,,,,3,0,3,3
1788937617.4989135,2879000029.0,-9.71484375,0.85546875,0.1171875,-0.056640625,0.015625,0.0,27.8125,-4.0,-24.6875,27.8125,-4.0,-24.6875,-0.01758425812362675,-0.7025126210017788,0.044616888393639545,0.7100536208410758,84.18379091431767,84.92136938385192,-98.00890849749672,0.513916015625,0.529052734375,0.46417236328125,-0.49041748046875,84.00472111873684,84.87657675439503,-8.348114162771891,0.9956011620771823,,,,3,0,3,3
1788937617.501096,2879004059.0,-9.75,0.89453125,0.078125,-0.056640625,0.015625,0.0,27.8125,-4.0,-24.6875,27.8125,-4.0,-24.6875,-0.017702120974415217,-0.7025328109943566,0.044731394785668795,0.7100235113782526,84.25464344220546,84.90314638378449,-97.93779917564336,0.513916015625,0.529052734375,0.46417236328125,-0.49041748046875,84.00472111873684,84.87657675439503,-8.348114162771891,0.9908433463577923,,,,3,0,3,3
1788937617.5120087,2879008042.0,-9.71484375,0.81640625,0.078125,-0.0546875,0.01953125,0.0,28.8125,-4.0625,-24.5625,28.8125,-4.0625,-24.5625,-0.017745779352012183,-0.7025636842167855,0.044845319848918416,0.7099846859070799,84.33747026626844,84.89112443335935,-97.86068291341732,0.51397705078125,0.5289306640625,0.46435546875,-0.49029541015625,84.04857997201643,84.87402471443596,-8.264424656552972,1.082792312890461,,,,3,0,3,3
1788937617.5120087,2879011371.0,-9.75390625,0.81640625,0.078125,-0.060546875,0.02734375,0.00390625,28.8125,-4.0625,-24.5625,28.8125,-4.0625,-24.5625,-0.01778682897118063,-0.7025981303616264,0.0449364429164422,0.7099438090620371,84.42148726174852,84.8811926414573,-97.78073660177728,0.51397705078125,0.5289306640625,0.46435546875,-0.49029541015625,84.04857997201643,84.87402471443596,-8.264424656552972,1.080317756999697,,,,3,0,3,3
1788937617.5203137,2879015731.0,-9.75390625,0.85546875,0.0390625,-0.056640625,0.03125,0.00390625,28.8125,-4.0625,-24.5625,28.8125,-4.0625,-24.5625,-0.017884483842708767,-0.7026845508443545,0.04504347740119009,0.7098490349264105,84.60621897643718,84.86638594850756,-97.59677854623354,0.51409912109375,0.52886962890625,0.464599609375,-0.49005126953125,84.2602314220504,84.90380573502561,-8.0497156071248,0.7182862540740593,,,,3,0,3,3
1788937617.521825,2879020037.0,-9.75390625,0.81640625,0.078125,-0.05078125,0.037109375,0.00390625,28.8125,-4.0625,-24.5625,28.8125,-4.0625,-24.5625,-0.017913064526399777,-0.7027399387663618,0.04517457909460286,0.7097851491723031,84.7336498235154,84.8545996940292,-97.47767491445404,0.51409912109375,0.52886962890625,0.464599609375,-0.49005126953125,84.2602314220504,84.90380573502561,-8.0497156071248,0.7143460807755506,,,,3,0,3,3
1788937617.521825,2879023514.0,-9.7890625,0.77734375,0.0390625,-0.05078125,0.037109375,0.00390625,28.8125,-4.0625,-24.5625,28.8125,-4.0625,-24.5625,-0.017890298445785165,-0.7028291368004989,0.045217529078952524,0.7096946644506921,84.89951323303464,84.85456928568291,-97.31714277099357,0.51409912109375,0.52886962890625,0.464599609375,-0.49005126953125,84.2602314220504,84.90380573502561,-8.0497156071248,0.7148660093032622,,,,3,0,3,3
1788937617.521825,2879027073.0,-9.75,0.703125,0.0390625,-0.046875,0.041015625,0.00390625,32.4375,-3.3125,-30.3125,32.4375,-3.3125,-30.3125,-0.017886153499245473,-0.7029035160192568,0.04500151837824805,0.7096348328714003,84.9902106424781,84.87349097412583,-97.20924140165955,0.51416015625,0.52880859375,0.46478271484375,-0.48980712890625,84.39886604812297,84.85691957594516,-7.8279796766987095,1.2028643555428062,,,,3,0,2,3
1788937617.521825,2879031279.0,-9.7890625,0.73828125,0.078125,-0.044921875,0.041015625,-0.00390625,32.4375,-3.3125,-30.3125,32.4375,-3.3125,-30.3125,-0.01787432856879672,-0.7029733685015167,0.04473189433313376,0.7095829825927443,85.06261651905396,84.89723467597416,-97.11590155726138,0.51416015625,0.52880859375,0.46478271484375,-0.48980712890625,84.39886604812297,84.85691957594516,-7.8279796766987095,1.209424068464371,,,,3,0,2,3
1788937617.5379615,2879039415.0,-9.79296875,0.85546875,0.1171875,-0.03125,0.046875,0.001953125,32.5,-5.1875,-30.1875,32.5,-5.1875,-30.1875,-0.017978532326506157,-0.7030431354477232,0.045042676922701266,0.7094915639603168,85.25539070276905,84.86510742947075,-96.93991331640662,0.51416015625,0.52880859375,0.46502685546875,-0.4896240234375,84.68610215806738,84.89373797195378,-7.550970933885422,0.9010843556928224,,,,3,0,2,3
1788937617.5379615,2879043921.0,-9.7109375,0.89453125,0.15625,-0.0234375,0.048828125,0.0,32.5,-5.1875,-30.1875,32.5,-5.1875,-30.1875,-0.018044327184398527,-0.7030644849509977,0.04521009245998669,0.7094580888233005,85.33006565150217,84.84673867782736,-96.87349819713145,0.51416015625,0.52880859375,0.46502685546875,-0.4896240234375,84.68610215806738,84.89373797195378,-7.550970933885422,0.8969113762088737,,,,3,0,2,3
1788937617.5379615,2879047181.0,-9.71484375,0.9296875,0.1171875,-0.017578125,0.052734375,-0.009765625,32.375,-7.25,-31.4375,32.375,-7.25,-31.4375,-0.018069333170793695,-0.7031146835479916,0.04533915407878821,0.7093994658056847,85.44557892069653,84.83518340338092,-96.76643654639675,0.51409912109375,0.52886962890625,0.4652099609375,-0.48944091796875,84.98748335074973,84.8921889978035,-7.230467917596118,0.9430500700171892,,,,3,0,2,3
1788937617.555846,2879051487.0,-9.63671875,0.85546875,0.1171875,-0.01171875,0.048828125,-0.015625,32.375,-7.25,-31.4375,32.375,-7.25,-31.4375,-0.018069410842438977,-0.7031750179810446,0.045510412674538515,0.7093286916637153,85.58471369773555,84.82238900808548,-96.64120022596609,0.51409912109375,0.52886962890625,0.4652099609375,-0.48944091796875,84.98748335074973,84.8921889978035,-7.230467917596118,0.941148301256955,,,,3,0,2,3
1788937617.5538929,2879059676.0,-9.63671875,0.9296875,0.15625,-0.01953125,0.0390625,-0.025390625,28.6875,-3.6875,-25.25,28.6875,-3.6875,-25.25,-0.01818317033565364,-0.7031073132754995,0.04555737810854281,0.7093898812606003,85.4810945483676,84.80839777118038,-96.73941288227321,0.51397705078125,0.5289306640625,0.46539306640625,-0.48931884765625,85.2828698201818,84.89557528875623,-6.920891394182947,1.0034009290188266,,,,3,0,3,3
