pc_unix,dev_us,ax,ay,az,gx,gy,gz,mx_raw,my_raw,mz_raw,mx,my,mz,host_qw,host_qx,host_qy,host_qz,host_roll,host_pitch,host_yaw,chip_qw,chip_qx,chip_qy,chip_qz,chip_roll,chip_pitch,chip_yaw,diff_deg,rel_roll,rel_pitch,rel_yaw,cal_acc,cal_gyr,cal_mag,cal_rv
1788945442.724149,530929294.0,-9.296875,-1.3359375,1.5,-0.021484375,0.017578125,-0.0234375,26.875,7.9375,-34.8125,26.875,7.9375,-34.8125,-0.006679994697002019,-0.6431445961256279,-0.09885322727124227,0.7593078727389246,-42.73463877389674,77.96219093275543,145.87204723852042,0.54296875,0.38201904296875,0.527587890625,-0.52996826171875,-43.63190091746079,77.9164587372203,-124.4848798140384,3.607256137656491,,,,3,0,2,3
1788945442.7268128,530936177.0,-9.33984375,-1.3359375,1.5,-0.015625,0.025390625,-0.029296875,26.875,7.9375,-34.8125,26.875,7.9375,-34.8125,-0.006632195452749817,-0.6431810027549157,-0.09864103539643351,0.7593050492487042,-42.683603005263244,77.9730173624409,145.90175416001284,0.54290771484375,0.3819580078125,0.52777099609375,-0.52996826171875,-43.74816346356812,77.9355566816588,-124.59382603908719,3.503525533718883,,,,3,0,2,3
1788945442.7339172,530936530.0,-9.33984375,-1.4140625,1.5,-0.013671875,0.01953125,-0.029296875,26.875,7.9375,-34.8125,26.875,7.9375,-34.8125,-0.006624316869636944,-0.643180934175649,-0.09863168902559823,0.7593063902397422,-42.682115945601225,77.97300161356901,145.9018339623318,0.54290771484375,0.3819580078125,0.52777099609375,-0.52996826171875,-43.74816346356812,77.9355566816588,-124.59382603908719,3.50469858619106,,,,3,0,2,3
1788945442.7358704,530941260.0,-9.296875,-1.4140625,1.5,-0.013671875,0.01953125,-0.029296875,26.875,7.9375,-34.8125,26.875,7.9375,-34.8125,-0.00651402436266773,-0.6431725587629092,-0.09851506373683458,0.7593295788772502,-42.66335376896178,77.97130614408746,145.9020690935258,0.54290771484375,0.3819580078125,0.52777099609375,-0.52996826171875,-43.74816346356812,77.9355566816588,-124.59382603908719,3.5195115896561178,,,,3,0,2,3
1788945442.7402477,530944466.0,-9.33984375,-1.375,1.4609375,-0.005859375,0.0234375,-0.02734375,26.875,7.9375,-34.8125,26.875,7.9375,-34.8125,-0.006459139504495539,-0.643208271515835,-0.098396060423627,0.7593152272038165,-42.64880496585054,77.97774724257225,145.90235969326656,0.54278564453125,0.38189697265625,0.52789306640625,-0.52996826171875,-43.83643298635502,77.9188387448042,-124.67649647647785,3.641102580028366,,,,3,0,2,3
1788945442.7402477,530948325.0,-9.33984375,-1.375,1.5,-0.01171875,0.025390625,-0.029296875,25.9375,8.0,-34.5625,25.9375,8.0,-34.5625,-0.006391819164430352,-0.6432122331623468,-0.09828779643442509,0.759326462616799,-42.62745855988881,77.97935314381316,145.90934763169412,0.54278564453125,0.38189697265625,0.52789306640625,-0.52996826171875,-43.83643298635502,77.9188387448042,-124.67649647647785,3.654136072478416,,,,3,0,2,3
1788945442.7531261,530955908.0,-9.26171875,-1.3359375,1.5,-0.01171875,0.029296875,-0.03125,25.9375,8.0,-34.5625,25.9375,8.0,-34.5625,-0.006301604140277341,-0.6432227187663044,-0.09807928565389065,0.7593452953523617,-42.5773210902473,77.98479861586597,145.93503585487878,0.54266357421875,0.38189697265625,0.528076171875,-0.52996826171875,-43.966540195376226,77.93797512925346,-124.80549368692179,3.584046368460034,,,,3,0,2,3
1788945442.7596738,530960291.0,-9.26171875,-1.375,1.4609375,-0.009765625,0.03125,-0.03515625,25.9375,8.0,-34.5625,25.9375,8.0,-34.5625,-0.006183470892325513,-0.6432631347032248,-0.09794971968794779,0.7593287539877289,-42.5773889116635,77.98901681538807,145.91469787901357,0.54266357421875,0.38189697265625,0.528076171875,-0.52996826171875,-43.966540195376226,77.93797512925346,-124.80549368692179,3.6001082613332493,,,,3,0,2,3
1788945442.7608101,530964197.0,-9.30078125,-1.4140625,1.421875,0.009765625,0.033203125,-0.02734375,25.9375,8.0,-34.5625,25.9375,8.0,-34.5625,-0.006007776695819496,-0.6433647347003761,-0.09782892978695223,0.7592596560201438,-42.62295900175008,77.9971459920368,145.8448419806939,0.54248046875,0.38189697265625,0.5281982421875,-0.52996826171875,-44.068639584286,77.92127633500225,-124.90840079269,3.74980959732343,,,,3,0,2,3
1788945442.7635276,530968080.0,-9.33984375,-1.4140625,1.4609375,-0.001953125,0.037109375,-0.03125,23.0,6.6875,-29.125,23.0,6.6875,-29.125,-0.005883865268703537,-0.6434211487496954,-0.0976984947900299,0.7592296158520719,-42.63137833126133,78.0029964523364,145.81559779584927,0.54248046875,0.38189697265625,0.5281982421875,-0.52996826171875,-44.068639584286,77.92127633500225,-124.90840079269,3.7653978872419263,,,,3,0,3,3
1788945442.7635276,530971686.0,-9.37890625,-1.3359375,1.4609375,0.009765625,0.03125,-0.033203125,23.0,6.6875,-29.125,23.0,6.6875,-29.125,-0.005824701538729984,-0.6434750461705341,-0.09754687016208297,0.7592038895641904,-42.6138115022111,78.01275981936305,145.81586848935274,0.54229736328125,0.38189697265625,0.5283203125,-0.530029296875,-44.1834138283996,77.91732951760953,-125.03002743249003,3.800740825566014,,,,3,0,3,3
1788945442.7615745,530975916.0,-9.33984375,-1.3359375,1.4609375,0.009765625,0.03125,-0.033203125,23.0,6.6875,-29.125,23.0,6.6875,-29.125,-0.005750025536981447,-0.643531702322469,-0.09737028781590311,0.75917910427179,-42.59213849964795,78.02311677371601,145.81693522431874,0.54229736328125,0.38189697265625,0.5283203125,-0.530029296875,-44.1834138283996,77.91732951760953,-125.03002743249003,3.8211791792257728,,,,3,0,3,3
1788945442.7635276,530979999.0,-9.37890625,-1.3359375,1.3828125,0.01953125,0.033203125,-0.037109375,23.125,7.8125,-28.0,23.125,7.8125,-28.0,-0.005668696491625055,-0.6436272399744039,-0.09754324272316595,0.7590765163289316,-42.72105831570053,78.0228755687005,145.69550247337438,0.54229736328125,0.38189697265625,0.5283203125,-0.530029296875,-44.1834138283996,77.91732951760953,-125.03002743249003,3.80119665363123,,,,3,0,3,3
1788945442.780378,530983605.0,-9.375,-1.3359375,1.421875,0.017578125,0.03515625,-0.037109375,23.125,7.8125,-28.0,23.125,7.8125,-28.0,-0.005602636548553387,-0.6436922643301809,-0.09772089861927978,0.7589990153341634,-42.83411762381848,78.0195757355416,145.59158534041165,0.54205322265625,0.3819580078125,0.5284423828125,-0.5301513671875,-44.32479129077478,77.92617950076847,-125.19053358523526,3.7136684349478313,,,,3,0,3,3
1788945442.778425,530988088.0,-9.37890625,-1.375,1.3828125,0.013671875,0.0390625,-0.041015625,23.125,7.8125,-28.0,23.125,7.8125,-28.0,-0.005492215645806814,-0.6437971904323774,-0.09793761700646861,0.7588828871003558,-42.991227354824176,78.01696795295086,145.44317968730087,0.54205322265625,0.3819580078125,0.5284423828125,-0.5301513671875,-44.32479129077478,77.92617950076847,-125.19053358523526,3.6883539808579067,,,,3,0,3,3
1788945442.778425,530995547.0,-9.375,-1.3359375,1.421875,0.015625,0.03125,-0.0390625,23.3125,10.0625,-28.375,23.3125,10.0625,-28.375,-0.005348663074761655,-0.6438750901595479,-0.09834645255620944,0.7587649407721445,-43.2166005721334,78.00113891686064,145.23960174087287,0.54180908203125,0.3819580078125,0.528564453125,-0.53021240234375,-44.44862576021434,77.90452487459375,-125.32234122505842,3.7758131375001915,,,,3,0,3,3
1788945442.7953448,530998954.0,-9.37890625,-1.375,1.4609375,0.01171875,0.029296875,-0.037109375,23.3125,10.0625,-28.375,23.3125,10.0625,-28.375,-0.005285304149481324,-0.6438999611813946,-0.09853902641717054,0.7587192931667167,-43.316153376830066,77.99246901902617,145.1506729214056,0.54180908203125,0.3819580078125,0.528564453125,-0.53021240234375,-44.44862576021434,77.90452487459375,-125.32234122505842,3.7543243435135016,,,,3,0,3,3
1788945442.7969382,531003236.0,-9.33984375,-1.4140625,1.3828125,0.0078125,0.029296875,-0.0390625,23.3125,10.0625,-28.375,23.3125,10.0625,-28.375,-0.005199866483057604,-0.6439453049177447,-0.09878482935834312,0.758649433632949,-43.4503670907781,77.98271064875044,145.02963694516342,0.5416259765625,0.38201904296875,0.5286865234375,-0.5302734375,-44.56831128197949,77.91821055740792,-125.45415588428199,3.6561729655406223,,,,3,0,3,3
1788945442.804355,531007496.0,-9.33984375,-1.4140625,1.4609375,0.013671875,0.03125,-0.0390625,23.875,7.375,-27.5625,23.875,7.375,-27.5625,-0.00500938752728796,-0.6439249901785687,-0.09898424852471906,0.7586419653592387,-43.564399016372846,77.96179334196293,144.9164988184135,0.5416259765625,0.38201904296875,0.5286865234375,-0.5302734375,-44.56831128197949,77.91821055740792,-125.45415588428199,3.6349337462083464,,,,3,0,3,3
1788945442.8062532,531015479.0,-9.296875,-1.4140625,1.3828125,0.009765625,0.0234375,-0.037109375,23.875,7.375,-27.5625,23.875,7.375,-27.5625,-0.004735743102786319,-0.6441219664811942,-0.099273108351176,0.7584387351605663,-43.8310595803806,77.95784408065981,144.65111225810793,0.54144287109375,0.38201904296875,0.52880859375,-0.5303955078125,-44.69556383803851,77.92693055413338,-125.59401703303129,3.4994352571827414,,,,3,0,3,3
1788945442.8135042,531019061.0,-9.296875,-1.4140625,1.4609375,0.013671875,0.029296875,-0.037109375,22.1875,6.125,-32.625,22.1875,6.125,-32.625,-0.004634241031935287,-0.644159433630538,-0.09912901377169002,0.7584263883222252,-43.82058985402574,77.96318345074636,144.64147480228527,0.54144287109375,0.38201904296875,0.52880859375,-0.5303955078125,-44.69556383803851,77.92693055413338,-125.59401703303129,3.5173380981441937,,,,3,0,3,3
1788945442.8135042,531022768.0,-9.296875,-1.4140625,1.4609375,0.005859375,0.03125,-0.033203125,22.1875,6.125,-32.625,22.1875,6.125,-32.625,-0.004543286679643847,-0.6442013394734495,-0.0989863802792191,0.7584099744109237,-43.80999504499964,77.96952867249514,144.632936187174,0.54119873046875,0.38201904296875,0.52886962890625,-0.53045654296875,-44.7817925264046,77.8871350514392,-125.68969783608365,3.781480197819375,,,,3,0,3,3
1788945442.8135042,531031104.0,-9.37890625,-1.453125,1.4609375,0.005859375,0.03515625,-0.033203125,25.3125,8.5,-34.625,25.3125,8.5,-34.625,-0.0040890704995586325,-0.6441707875153805,-0.09921460480914475,0.7584086881140203,-43.99641987919286,77.93218565342227,144.42833850004004,0.54119873046875,0.38201904296875,0.52886962890625,-0.53045654296875,-44.7817925264046,77.8871350514392,-125.68969783608365,3.7606336607861706,,,,3,0,3,3
1788945442.8296373,531034610.0,-9.33984375,-1.453125,1.5,0.005859375,0.037109375,-0.037109375,25.3125,8.5,-34.625,25.3125,8.5,-34.625,-0.003952325882100443,-0.6441279211699629,-0.09926846930037622,0.7584387722764073,-44.03150773042347,77.91767699833,144.38659224088747,0.541015625,0.382080078125,0.529052734375,-0.530517578125,-44.93904522595595,77.91880611090032,-125.85764304817128,3.5732470264278784,,,,3,0,3,3
1788945442.8311715,531039069.0,-9.33984375,-1.453125,1.4609375,0.005859375,0.03515625,-0.033203125,26.3125,7.0,-34.625,26.3125,7.0,-34.625,-0.003841467314602833,-0.6441844729399544,-0.0990971580065225,0.7584137137651022,-44.022196470167614,77.92593863335053,144.37278587301375,0.541015625,0.382080078125,0.529052734375,-0.530517578125,-44.93904522595595,77.91880611090032,-125.85764304817128,3.59409653165264,,,,3,0,3,3
1788945442.8311715,531042375.0,-9.33984375,-1.453125,1.5,0.009765625,0.03125,-0.033203125,26.3125,7.0,-34.625,26.3125,7.0,-34.625,-0.003756864685610551,-0.6442079411423257,-0.09897221992635132,0.7584105182681408,-44.008265430664785,77.92971196074959,144.36956841398754,0.54083251953125,0.382080078125,0.5291748046875,-0.53057861328125,-45.05363883686377,77.9146826999987,-125.97911143638699,3.6259557532113473,,,,3,0,3,3
1788945442.8425446,531046758.0,-9.33984375,-1.453125,1.5,0.013671875,0.041015625,-0.037109375,26.3125,7.0,-34.625,26.3125,7.0,-34.625,-0.003630061608923997,-0.6442541212482666,-0.098805979544431,0.7583935840403746,-44.000175649954926,77.93571948096961,144.35367084889077,0.54083251953125,0.382080078125,0.5291748046875,-0.53057861328125,-45.05363883686377,77.9146826999987,-125.97911143638699,3.64641172910065,,,,3,0,3,3
1788945442.8464797,531050511.0,-9.33984375,-1.375,1.5390625,0.013671875,0.041015625,-0.037109375,26.25,8.9375,-34.4375,26.25,8.9375,-34.4375,-0.0035673605052746016,-0.6442001847482758,-0.09887445176456384,0.7584307738334263,-44.0167837273038,77.92317159704552,144.33763114400273,0.54083251953125,0.382080078125,0.5291748046875,-0.53057861328125,-45.05363883686377,77.9146826999987,-125.97911143638699,3.6395680006776354,,,,3,0,3,3
1788945442.8438513,531056094.0,-9.296875,-1.4140625,1.5,0.021484375,0.046875,-0.033203125,26.25,8.9375,-34.4375,26.25,8.9375,-34.4375,-0.00340233350616185,-0.6441490459005175,-0.09905195646427943,0.758451805135148,-44.10071337939956,77.90076319842466,144.2548941989496,0.54058837890625,0.38214111328125,0.529296875,-0.5306396484375,-45.18255740035537,77.91058105705453,-126.12140208687678,3.667186025995989,,,,3,0,3,3
1788945442.8477864,531058200.0,-9.33984375,-1.3359375,1.5390625,0.01171875,0.05078125,-0.0390625,26.25,8.9375,-34.4375,26.25,8.9375,-34.4375,-0.003388215642959829,-0.6441303399562563,-0.09906434951270066,0.7584661362237737,-44.10032181969761,77.89731242540144,144.2551715596769,0.54058837890625,0.38214111328125,0.529296875,-0.5306396484375,-45.18255740035537,77.91058105705453,-126.12140208687678,3.6660923170227018,,,,3,0,3,3
1788945442.8636785,531066183.0,-9.296875,-1.3359375,1.5390625,0.0078125,0.0546875,-0.0390625,26.25,8.9375,-34.4375,26.25,8.9375,-34.4375,-0.003326722773183749,-0.6440676837461337,-0.09913329585847733,0.7585106072572197,-44.11268906936776,77.88379683042255,144.24351798151505,0.54034423828125,0.3822021484375,0.52947998046875,-0.5306396484375,-45.33671988668649,77.91173272192306,-126.28196753979142,3.7110816964981597,,,,3,0,3,3
1788945442.8607907,531070043.0,-9.30078125,-1.296875,1.5390625,-0.001953125,0.05859375,-0.044921875,26.25,8.9375,-34.4375,26.25,8.9375,-34.4375,-0.003330220336084637,-0.6440548098897462,-0.09914906343001963,0.7585194623154674,-44.111741367289554,77.88179741915611,144.24605516386134,0.54034423828125,0.3822021484375,0.52947998046875,-0.5306396484375,-45.33671988668649,77.91173272192306,-126.28196753979142,3.7093839851521095,,,,3,0,3,3
1788945442.8676136,531074025.0,-9.296875,-1.3359375,1.5390625,-0.005859375,0.0625,-0.052734375,26.25,8.9375,-34.4375,26.25,8.9375,-34.4375,-0.003297180393900117,-0.6440334453932026,-0.0992175333383339,0.7585287937149567,-44.135516749100375,77.87456922849519,144.22523054024498,0.5400390625,0.38226318359375,0.52972412109375,-0.53070068359375,-45.5501460203178,77.92595705086235,-126.50721060377343,3.6444692997831387,,,,3,0,3,3
1788945442.871678,531077732.0,-9.37890625,-1.375,1.4609375,-0.0078125,0.072265625,-0.046875,26.25,8.9375,-34.4375,26.25,8.9375,-34.4375,-0.0033412100867594853,-0.644064981298948,-0.0994080597578889,0.7584768775873884,-44.208729487894765,77.87210835738587,144.17120067483998,0.5400390625,0.38226318359375,0.52972412109375,-0.53070068359375,-45.5501460203178,77.92595705086235,-126.50721060377343,3.621368074365066,,,,3,0,3,3
1788945442.8804607,531085291.0,-9.30078125,-1.4921875,1.421875,-0.01171875,0.068359375,-0.048828125,23.75,8.75,-27.8125,23.75,8.75,-27.8125,-0.0031481878750893298,-0.6442271060222593,-0.0999264935390135,0.7582718646160396,-44.52122911806283,77.85757423004769,143.8854018403089,0.53973388671875,0.38226318359375,0.530029296875,-0.5306396484375,-45.77112577996232,77.91485397137511,-126.72273257338752,3.7149409806431257,,,,3,0,3,3
1788945442.8853867,531089374.0,-9.3359375,-1.52734375,1.34765625,-0.015625,0.076171875,-0.048828125,23.75,8.75,-27.8125,23.75,8.75,-27.8125,-0.003044309525674195,-0.6443503557798581,-0.10020152184263287,0.7581312592198678,-44.704247463823556,77.85393274520469,143.71639592757904,0.53973388671875,0.38226318359375,0.530029296875,-0.5306396484375,-45.77112577996232,77.91485397137511,-126.72273257338752,3.683415870378171,,,,3,0,3,3
1788945442.8903942,531093080.0,-9.33984375,-1.52734375,1.26953125,-0.017578125,0.072265625,-0.044921875,23.75,8.75,-27.8125,23.75,8.75,-27.8125,-0.0029623478994588058,-0.6444764433404186,-0.10043450988916479,0.757993567055506,-44.86772920540004,77.85356734924528,143.5652569084427,0.53948974609375,0.38232421875,0.53033447265625,-0.5306396484375,-46.001677324851926,77.95192320646974,-126.9562480532813,3.4802979035306425,,,,3,0,3,3
1788945442.8964798,531101616.0,-9.3359375,-1.56640625,1.26953125,-0.017578125,0.06640625,-0.041015625,24.125,8.75,-27.75,24.125,8.75,-27.75,-0.0027686705959268803,-0.644743087958313,-0.10096334428623246,0.7576972271980742,-45.23168495580676,77.84979058487336,143.2287157927036,0.53948974609375,0.38232421875,0.53033447265625,-0.5306396484375,-46.001677324851926,77.95192320646974,-126.9562480532813,3.416042976548314,,,,3,0,3,3
1788945442.8996253,531106299.0,-9.41796875,-1.56640625,1.23046875,-0.005859375,0.06640625,-0.041015625,24.125,8.75,-27.75,24.125,8.75,-27.75,-0.0026520367267127243,-0.6449033029087224,-0.10121929262262326,0.7575271291508947,-45.42798363692216,77.85011761910737,143.04379777795393,0.5391845703125,0.38238525390625,0.5306396484375,-0.53057861328125,-46.22931059841107,77.95837527838742,-127.1833251884079,3.4517210967485217,,,,3,0,3,3
1788945442.9055822,531109105.0,-9.4140625,-1.52734375,1.23046875,-0.005859375,0.06640625,-0.033203125,24.125,8.75,-27.75,24.125,8.75,-27.75,-0.002596672370239362,-0.645002851118133,-0.10136322439766834,0.7574233136640229,-45.54029679960792,77.85187034097649,142.93870758411438,0.5391845703125,0.38238525390625,0.5306396484375,-0.53057861328125,-46.22931059841107,77.95837527838742,-127.1833251884079,3.434219438095286,,,,3,0,3,3
1788945442.911492,531113488.0,-9.4140625,-1.52734375,1.23046875,-0.00390625,0.05859375,-0.02734375,24.125,8.75,-27.75,24.125,8.75,-27.75,-0.002519299195433581,-0.6451465140411013,-0.10157658570596702,0.7572726231605743,-45.70388627221945,77.85420711264355,142.78621122043882,0.5389404296875,0.3824462890625,0.5308837890625,-0.530517578125,-46.410562934873354,77.96445610793292,-127.36411504435938,3.4668698358361736,,,,3,0,3,3
1788945442.9131863,531120747.0,-9.37890625,-1.453125,1.26953125,0.0078125,0.0546875,-0.02734375,23.5625,7.1875,-31.625,23.5625,7.1875,-31.625,-0.002378190813420835,-0.6454540635288145,-0.10134472212912858,0.7570420354109578,-45.79924007559395,77.89194298048922,142.66008575274824,0.5389404296875,0.3824462890625,0.5308837890625,-0.530517578125,-46.410562934873354,77.96445610793292,-127.36411504435938,3.4920986262294496,,,,3,0,3,3
1788945442.9131863,531124354.0,-9.37890625,-1.375,1.26953125,0.005859375,0.052734375,-0.025390625,23.5625,7.1875,-31.625,23.5625,7.1875,-31.625,-0.002344780520781202,-0.6455947786382057,-0.10121659156855531,0.7569392877837956,-45.82745396676139,77.91190356731056,142.6185169650904,0.5386962890625,0.382568359375,0.531005859375,-0.530517578125,-46.53441297173908,77.9649556441293,-127.50123582854475,3.580309382459574,,,,3,0,3,3
1788945442.9131863,531128313.0,-9.37890625,-1.4140625,1.30859375,0.0,0.046875,-0.029296875,28.1875,7.875,-34.5625,28.1875,7.875,-34.5625,-0.0022991359947360968,-0.6457198933220741,-0.10106935634472013,0.7568523756650768,-45.844481268447396,77.93031680507107,142.58558726874116,0.5386962890625,0.382568359375,0.531005859375,-0.530517578125,-46.53441297173908,77.9649556441293,-127.50123582854475,3.5963786414884726,,,,3,0,2,3
1788945442.9263546,531136772.0,-9.37890625,-1.296875,1.34765625,-0.0078125,0.046875,-0.03125,28.1875,7.875,-34.5625,28.1875,7.875,-34.5625,-0.0022960002885596066,-0.6459354985804462,-0.10077617251037407,0.7567074884725701,-45.84099794464185,77.96797074015903,142.56456911050466,0.53851318359375,0.382568359375,0.53118896484375,-0.530517578125,-46.67530437238972,77.96571112907174,-127.64210623132284,3.6473881564312625,,,,3,0,2,3
1788945442.9283078,531139979.0,-9.37890625,-1.3359375,1.30859375,-0.0234375,0.03515625,-0.0390625,28.1875,7.875,-34.5625,28.1875,7.875,-34.5625,-0.002294257067792489,-0.6460147785866542,-0.10069457789037325,0.7566506751570519,-45.84944281012535,77.98058024838225,142.54921829808856,0.53851318359375,0.382568359375,0.53118896484375,-0.530517578125,-46.67530437238972,77.96571112907174,-127.64210623132284,3.6560317103081603,,,,3,0,2,3
1788945442.9283078,531144661.0,-9.375,-1.375,1.34765625,-0.0234375,0.037109375,-0.037109375,28.1875,7.875,-34.5625,28.1875,7.875,-34.5625,-0.0022795291346794045,-0.6461158620920732,-0.10056411796094077,0.7565817567709912,-45.85371803849617,77.99719631588023,142.53295374383544,0.53839111328125,0.38250732421875,0.5313720703125,-0.530517578125,-46.80111169619499,77.96645847044935,-127.76120674022067,3.6602418889638733,,,,3,0,2,3
1788945442.943408,531147768.0,-9.41796875,-1.375,1.30859375,-0.021484375,0.03125,-0.041015625,26.4375,8.625,-33.4375,26.4375,8.625,-33.4375,-0.0022926605731768052,-0.6462270498717234,-0.10056941913971715,0.7564860445873969,-45.905501772114576,78.01020948559804,142.482575572811,0.53839111328125,0.38250732421875,0.5313720703125,-0.530517578125,-46.80111169619499,77.96645847044935,-127.76120674022067,3.6586479321236647,,,,3,0,2,3
1788945442.9501789,531152150.0,-9.41796875,-1.4140625,1.30859375,-0.01953125,0.03125,-0.037109375,26.4375,8.625,-33.4375,26.4375,8.625,-33.4375,-0.0022774875332692616,-0.6463921578901642,-0.10060791105146431,0.7563398968073107,-46.00240026056511,78.02621407706398,142.38745887741146,0.5382080078125,0.3824462890625,0.5316162109375,-0.530517578125,-46.973852924896505,77.96740448593542,-127.92720521687617,3.649362839949836,,,,3,0,2,3
1788945442.9481823,531156580.0,-9.4140625,-1.4921875,1.34765625,-0.01953125,0.03125,-0.037109375,26.4375,8.625,-33.4375,26.4375,8.625,-33.4375,-0.0021156908783487673,-0.646516748151823,-0.10078337074477962,0.7562105066663779,-46.16634411600573,78.02327203502449,142.22465381534292,0.5382080078125,0.3824462890625,0.5316162109375,-0.530517578125,-46.973852924896505,77.96740448593542,-127.92720521687617,3.629764187910559,,,,3,0,2,3
1788945442.9501789,531159886.0,-9.41796875,-1.4921875,1.30859375,-0.025390625,0.02734375,-0.037109375,26.875,9.4375,-28.3125,26.875,9.4375,-28.3125,-0.002072838635680867,-0.6465585152102653,-0.1010053391914293,0.7561452976802221,-46.277864670111136,78.0153032578104,142.1278271341039,0.5382080078125,0.3824462890625,0.5316162109375,-0.530517578125,-46.973852924896505,77.96740448593542,-127.92720521687617,3.6042702624734533,,,,3,0,3,3
1788945442.9599464,531165669.0,-9.37890625,-1.4921875,1.26953125,-0.017578125,0.02734375,-0.041015625,26.875,9.4375,-28.3125,26.875,9.4375,-28.3125,-0.001975195235664628,-0.6466445543979662,-0.1013732935063235,0.7560227339405325,-46.47712432445923,78.00243391376002,141.95074982404392,0.5380859375,0.38238525390625,0.53179931640625,-0.530517578125,-47.09957376209047,77.96809254322777,-128.04616842948667,3.5509973108451947,,,,3,0,3,3
1788945442.9618995,531167575.0,-9.37890625,-1.4921875,1.26953125,-0.009765625,0.0234375,-0.048828125,26.875,9.4375,-28.3125,26.875,9.4375,-28.3125,-0.0019335826791410475,-0.6466693450505151,-0.10149375227596855,0.7559854745158171,-46.54301417684161,77.99728744429481,141.89134124898774,0.5380859375,0.38238525390625,0.53179931640625,-0.530517578125,-47.09957376209047,77.96809254322777,-128.04616842948667,3.5372358555349344,,,,3,0,3,3
1788945442.9696844,531175558.0,-9.3359375,-1.4921875,1.23046875,-0.009765625,0.013671875,-0.044921875,26.875,9.4375,-28.3125,26.875,9.4375,-28.3125,-0.0017749156439239983,-0.646762702126106,-0.1019722817713388,0.7558415909192491,-46.80019406190473,77.97651123638798,141.66045482577857,0.53790283203125,0.38232421875,0.531982421875,-0.53057861328125,-47.24606330930869,77.96373550154004,-128.192869604218,3.4713702331406857,,,,3,0,3,3
1788945442.9755645,531179218.0,-9.3359375,-1.52734375,1.23046875,-0.005859375,0.015625,-0.041015625,23.0625,9.6875,-28.125,23.0625,9.6875,-28.125,-0.0017120891862640398,-0.646794683155881,-0.1021946286757712,0.7557843372693848,-46.91125498686445,77.9661273244672,141.56250768589064,0.53790283203125,0.38232421875,0.531982421875,-0.53057861328125,-47.24606330930869,77.96373550154004,-128.192869604218,3.445713034305831,,,,3,0,3,3
1788945442.9755645,531183900.0,-9.33984375,-1.56640625,1.19140625,-0.00390625,0.0078125,-0.04296875,23.0625,9.6875,-28.125,23.0625,9.6875,-28.125,-0.00162063724930862,-0.6468278415887022,-0.10247326227350259,0.7557184312954348,-47.049919211080024,77.95159092219896,141.43925017644716,0.53778076171875,0.3822021484375,0.5321044921875,-0.5306396484375,-47.33882348675049,77.94137279290082,-128.28142146721578,3.4897223126181482,,,,3,0,3,3
1788945442.9865062,531187383.0,-9.296875,-1.52734375,1.1171875,0.0078125,0.0,-0.0390625,23.5625,9.3125,-27.125,23.5625,9.3125,-27.125,-0.001547595970270149,-0.6468585035335889,-0.10264573069552035,0.7556689323526417,-47.14451135103621,77.9427749131165,141.35285064734506,0.53778076171875,0.3822021484375,0.5321044921875,-0.5306396484375,-47.33882348675049,77.94137279290082,-128.28142146721578,3.470396443324062,,,,3,0,3,3
1788945442.9916136,531194966.0,-9.33984375,-1.52734375,1.15625,0.00390625,-0.013671875,-0.041015625,23.5625,9.3125,-27.125,23.5625,9.3125,-27.125,-0.0014001639461264002,-0.6468755508251225,-0.10304730323606716,0.7555999699453357,-47.33235605043888,77.91740262738222,141.1859700509736,0.53765869140625,0.38214111328125,0.53216552734375,-0.53076171875,-47.411850472747055,77.93157055376292,-128.36167700791833,3.401570453630303,,,,3,0,3,3
1788945442.9949093,531198949.0,-9.3359375,-1.453125,1.19140625,0.01171875,-0.02734375,-0.03515625,23.9375,8.4375,-26.8125,23.9375,8.4375,-26.8125,-0.001341294204938645,-0.646888784590871,-0.10320737639106917,0.7555668989301173,-47.41021039949542,77.9079653361739,141.1164591994765,0.53765869140625,0.38214111328125,0.53216552734375,-0.53076171875,-47.411850472747055,77.93157055376292,-128.36167700791833,3.383474118582749,,,,3,0,3,3
1788945442.990482,531203132.0,-9.41796875,-1.52734375,1.1171875,0.005859375,-0.037109375,-0.03515625,23.9375,8.4375,-26.8125,23.9375,8.4375,-26.8125,-0.0012720415438054996,-0.6468955630295032,-0.10337174916892285,0.7555387441533425,-47.488826885823016,77.89701341253073,141.0457013801087,0.53759765625,0.38201904296875,0.5321044921875,-0.53094482421875,-47.4051275602974,77.89865697704292,-128.36480753518512,3.4248198185629986,,,,3,0,3,3
1788945442.9949093,531207491.0,-9.41796875,-1.52734375,1.15625,0.013671875,-0.0390625,-0.029296875,24.125,6.3125,-28.0,24.125,6.3125,-28.0,-0.001200351157889012,-0.6469235828913718,-0.10322062234719744,0.7555355320422366,-47.46566548425387,77.90330012816933,141.05060709982322,0.53759765625,0.38201904296875,0.5321044921875,-0.53094482421875,-47.4051275602974,77.89865697704292,-128.36480753518512,3.4428563827786522,,,,3,0,3,3
1788945443.009577,531211597.0,-9.4140625,-1.4921875,1.19140625,0.015625,-0.048828125,-0.03125,24.125,6.3125,-28.0,24.125,6.3125,-28.0,-0.0011403547946927163,-0.6469234180638125,-0.10306215769179743,0.75555739848372,-47.423316557922135,77.90748277087671,141.0750732833212,0.53759765625,0.3818359375,0.53204345703125,-0.5311279296875,-47.38322887354622,77.86584150342398,-128.34599985202587,3.4893628638521035,,,,3,0,3,3
1788945443.0096698,531216980.0,-9.41796875,-1.4921875,1.1171875,0.015625,-0.060546875,-0.03125,24.125,6.3125,-28.0,24.125,6.3125,-28.0,-0.0010646911735524532,-0.6469206829882588,-0.10288846901779357,0.7555835223837826,-47.37801263015838,77.91123062517686,141.0999742657641,0.53759765625,0.3818359375,0.53204345703125,-0.5311279296875,-47.38322887354622,77.86584150342398,-128.34599985202587,3.510008243110533,,,,3,0,3,3
1788945443.0136049,531219133.0,-9.41796875,-1.453125,1.1171875,0.015625,-0.060546875,-0.03125,22.375,8.5,-32.6875,22.375,8.5,-32.6875,-0.0010429328420867693,-0.6469226855602357,-0.10291685219097048,0.7555779726366573,-47.394353710824774,77.90888556608172,141.0841928755014,0.53759765625,0.3818359375,0.53204345703125,-0.5311279296875,-47.38322887354622,77.86584150342398,-128.34599985202587,3.507001295180426,,,,3,0,3,3
1788945443.0258658,531226216.0,-9.37890625,-1.453125,1.1171875,0.025390625,-0.06640625,-0.033203125,22.375,8.5,-32.6875,22.375,8.5,-32.6875,-0.0009428521882818796,-0.6469120931197704,-0.10299263160537407,0.7555768476072758,-47.440221630961496,77.89851777291568,141.03642082742792,0.53765869140625,0.38165283203125,0.5318603515625,-0.53143310546875,-47.30096527976648,77.84037866808951,-128.2785028353473,3.391582654820931,,,,3,0,3,3
1788945443.012594,531226569.0,-9.33984375,-1.4140625,1.15625,0.01953125,-0.076171875,-0.037109375,22.375,8.5,-32.6875,22.375,8.5,-32.6875,-0.0009398202026132013,-0.6469103190929625,-0.10299636285637938,0.7555778616578076,-47.44141355825132,77.8979749120282,141.03529029873454,0.53765869140625,0.38165283203125,0.5318603515625,-0.53143310546875,-47.30096527976648,77.84037866808951,-128.2785028353473,3.391178881992483,,,,3,0,3,3
1788945443.014745,531231499.0,-9.30078125,-1.4140625,1.19140625,0.01953125,-0.076171875,-0.037109375,22.375,8.5,-32.6875,22.375,8.5,-32.6875,-0.0009025573903055763,-0.6468833339248643,-0.10305490968412466,0.7555930275422125,-47.458054828040034,77.89012642630479,141.02044974896125,0.53765869140625,0.38165283203125,0.5318603515625,-0.53143310546875,-47.30096527976648,77.84037866808951,-128.2785028353473,3.384733707881231,,,,3,0,3,3
1788945443.0233483,531234705.0,-9.30078125,-1.453125,1.19140625,0.03125,-0.087890625,-0.04296875,22.375,8.5,-32.6875,22.375,8.5,-32.6875,-0.0008441141467454555,-0.6468476721403714,-0.10310301082883039,0.755617062853877,-47.471779121434786,77.88063617165774,141.0059550789031,0.5377197265625,0.38140869140625,0.53167724609375,-0.53173828125,-47.21279812456112,77.7972880914626,-128.20071951818733,3.365389696768694,,,,3,0,3,3
1788945443.029801,531238088.0,-9.37890625,-1.453125,1.26953125,0.021484375,-0.09765625,-0.0390625,26.5,9.8125,-34.9375,26.5,9.8125,-34.9375,-0.0008120751247923675,-0.6467707516385477,-0.10322281247586146,0.7556665841119833,-47.484633640946626,77.86465464928499,141.00039735606885,0.5377197265625,0.38140869140625,0.53167724609375,-0.53173828125,-47.21279812456112,77.7972880914626,-128.20071951818733,3.351534440563227,,,,3,0,2,3
1788945443.0406263,531245947.0,-9.41796875,-1.52734375,1.26953125,0.025390625,-0.103515625,-0.041015625,26.5,9.8125,-34.9375,26.5,9.8125,-34.9375,-0.0006423836914555976,-0.6465511338158066,-0.1035368404576123,0.7558117102643641,-47.529850525293526,77.81599674504808,140.96735909828072,0.53778076171875,0.38116455078125,0.53143310546875,-0.5321044921875,-47.09965107972726,77.74909096163981,-128.1049907697924,3.295296307068806,,,,3,0,2,3
1788945443.0425794,531246554.0,-9.375,-1.56640625,1.30859375,0.029296875,-0.111328125,-0.033203125,26.5,9.8125,-34.9375,26.5,9.8125,-34.9375,-0.0006268153732894171,-0.6465284295582644,-0.10356279340796531,0.7558275892668587,-47.53173384992791,77.81138816811885,140.9663608859109,0.53778076171875,0.38116455078125,0.53143310546875,-0.5321044921875,-47.09965107972726,77.74909096163981,-128.1049907697924,3.2923520859997115,,,,3,0,2,3
1788945443.0425794,531250507.0,-9.3359375,-1.60546875,1.26953125,0.029296875,-0.111328125,-0.033203125,26.5,9.8125,-34.9375,26.5,9.8125,-34.9375,-0.0005125051034258985,-0.6463899775919364,-0.10372109426561911,0.755924380352663,-47.54779919355312,77.78220178567616,140.95412207754728,0.53778076171875,0.38116455078125,0.53143310546875,-0.5321044921875,-47.09965107972726,77.74909096163981,-128.1049907697924,3.274708449859554,,,,3,0,2,3
1788945443.0386443,531255989.0,-9.296875,-1.64453125,1.30859375,0.0234375,-0.115234375,-0.029296875,26.5,9.8125,-34.9375,26.5,9.8125,-34.9375,-0.00034774726819943074,-0.6461557145659674,-0.10396557061315222,0.7560911530580575,-47.559898523603216,77.7355451150735,140.9489092142337,0.53790283203125,0.380859375,0.5311279296875,-0.53240966796875,-46.92345031412532,77.67079525067373,-127.9369579571462,3.4445635244193964,,,,3,0,2,3
1788945443.0557592,531258196.0,-9.30078125,-1.60546875,1.3828125,0.025390625,-0.123046875,-0.03125,26.5,9.8125,-34.9375,26.5,9.8125,-34.9375,-0.00028274143088138557,-0.6460322149719033,-0.10406977725009538,0.7561823713489328,-47.55245187268264,77.71335267706714,140.95973695632026,0.53790283203125,0.380859375,0.5311279296875,-0.53240966796875,-46.92345031412532,77.67079525067373,-127.9369579571462,3.4334668631656364,,,,3,0,2,3
1788945443.051824,531266379.0,-9.2578125,-1.60546875,1.3828125,0.044921875,-0.119140625,-0.029296875,26.5,9.8125,-34.9375,26.5,9.8125,-34.9375,1.0105767207406384e-05,-0.6455818821876431,-0.10438821500565947,0.7565230557338393,-47.51713242001844,77.63226477391855,140.9977995858529,0.5380859375,0.38055419921875,0.53082275390625,-0.5328369140625,-46.764116101057155,77.63497276399663,-127.7931863914174,3.2088237807167053,,,,3,0,2,3
1788945443.0557592,531270038.0,-9.21875,-1.60546875,1.4609375,0.04296875,-0.119140625,-0.02734375,22.6875,8.1875,-28.6875,22.6875,8.1875,-28.6875,0.0001319382008954639,-0.6453403139240516,-0.10450390765487935,0.7567131524571105,-47.470980310947944,77.59337185952587,141.04376409526407,0.5380859375,0.38055419921875,0.53082275390625,-0.5328369140625,-46.764116101057155,77.63497276399663,-127.7931863914174,3.196602326040823,,,,3,0,3,3
1788945443.0557592,531273744.0,-9.21875,-1.56640625,1.5390625,0.052734375,-0.119140625,-0.021484375,22.6875,8.1875,-28.6875,22.6875,8.1875,-28.6875,0.00023192351065590556,-0.6450719340346639,-0.10455136445804816,0.7569353726192374,-47.38358125259307,77.55598622793576,141.12717275238586,0.53826904296875,0.38031005859375,0.5303955078125,-0.533203125,-46.52653408969485,77.56900952867636,-127.5752362963808,3.280958600276933,,,,3,0,3,3
1788945443.072709,531277427.0,-9.26171875,-1.52734375,1.5,0.05078125,-0.111328125,-0.0234375,23.5,7.3125,-28.0,23.5,7.3125,-28.0,0.0003172786093236323,-0.6448426337759537,-0.10441221803645677,0.7571498964695714,-47.24664656057898,77.53255035982737,141.24594804889264,0.53826904296875,0.38031005859375,0.5303955078125,-0.533203125,-46.52653408969485,77.56900952867636,-127.5752362963808,3.298011768050946,,,,3,0,3,3
1788945443.070756,531281910.0,-9.21875,-1.56640625,1.578125,0.048828125,-0.11328125,-0.01171875,23.5,7.3125,-28.0,23.5,7.3125,-28.0,0.0004149395466372313,-0.6445423892932175,-0.1042855445149492,0.7574229079151116,-47.08422045289989,77.4999444177659,141.39030255349223,0.53839111328125,0.38006591796875,0.530029296875,-0.53363037109375,-46.34813842443083,77.51577463489092,-127.421359145173,3.2748053930315084,,,,3,0,3,3
1788945443.083022,531286216.0,-9.26171875,-1.52734375,1.61328125,0.0546875,-0.1015625,-0.0078125,23.5,7.3125,-28.0,23.5,7.3125,-28.0,0.0004909371049787905,-0.6442770874398392,-0.10413257193459038,0.7576695856658653,-46.924714862505304,77.4735702624988,141.53130682712333,0.53839111328125,0.38006591796875,0.530029296875,-0.53363037109375,-46.34813842443083,77.51577463489092,-127.421359145173,3.293674256139998,,,,3,0,3,3
1788945443.0869572,531289646.0,-9.30078125,-1.56640625,1.61328125,0.0546875,-0.1015625,-0.0078125,23.4375,7.25,-28.375,23.4375,7.25,-28.375,0.0005636415549735986,-0.6440673981149093,-0.10400919142541722,0.7578647353536905,-46.80120469551659,77.45209180934036,141.6389636781784,0.53839111328125,0.38006591796875,0.530029296875,-0.53363037109375,-46.34813842443083,77.51577463489092,-127.421359145173,3.30941807716526,,,,3,0,3,3
1788945443.0897398,531296529.0,-9.2578125,-1.56640625,1.61328125,0.052734375,-0.099609375,-0.00390625,23.4375,7.25,-28.375,23.4375,7.25,-28.375,0.0007008696166500412,-0.6436505038814236,-0.10376621892300637,0.758252009193113,-46.55602432428722,77.40955371276621,141.8534118108876,0.53851318359375,0.37994384765625,0.52960205078125,-0.53399658203125,-46.13428636902603,77.46742771691193,-127.23835074654531,3.357946750896759,,,,3,0,3,3
1788945443.093675,531297182.0,-9.296875,-1.52734375,1.61328125,0.05078125,-0.087890625,0.0,23.4375,7.25,-28.375,23.4375,7.25,-28.375,0.0007100854052940703,-0.6436150061403176,-0.10373942901446548,0.7582857973860969,-46.53252663013059,77.4063437351001,141.87399242897303,0.53851318359375,0.37994384765625,0.52960205078125,-0.53399658203125,-46.13428636902603,77.46742771691193,-127.23835074654531,3.3612488907323845,,,,3,0,3,3
1788945443.093675,531300835.0,-9.296875,-1.52734375,1.65234375,0.05078125,-0.087890625,0.0,23.4375,7.25,-28.375,23.4375,7.25,-28.375,0.0007605291001686967,-0.6434126784106251,-0.10359860992041718,0.758476680510687,-46.40247888050619,77.38757826827181,141.98855842176667,0.53851318359375,0.37994384765625,0.52960205078125,-0.53399658203125,-46.13428636902603,77.46742771691193,-127.23835074654531,3.378858542114269,,,,3,0,3,3
1788945443.1004891,531305318.0,-9.296875,-1.453125,1.65234375,0.0625,-0.078125,-0.01171875,23.4375,7.25,-28.375,23.4375,7.25,-28.375,0.0008328431683944217,-0.6431889834243107,-0.10339575789449015,0.7586939799571909,-46.24659605698362,77.36805735898895,142.12210705945927,0.53863525390625,0.3798828125,0.52923583984375,-0.5343017578125,-45.95199466020234,77.44143709773451,-127.08459102157603,3.3305049238665903,,,,3,0,3,3
1788945443.1049163,531308800.0,-9.33984375,-1.4140625,1.61328125,0.064453125,-0.068359375,-0.009765625,23.625,8.125,-28.9375,23.625,8.125,-28.9375,0.0008567964463839686,-0.643007396323124,-0.1033025459159568,0.7588605525265416,-46.1371862027363,77.3507464869908,142.22207983206818,0.53863525390625,0.3798828125,0.52923583984375,-0.5343017578125,-45.95199466020234,77.44143709773451,-127.08459102157603,3.342522303563687,,,,3,0,3,3
1788945443.111081,531313083.0,-9.296875,-1.4140625,1.65234375,0.064453125,-0.048828125,-0.009765625,23.625,8.125,-28.9375,23.625,8.125,-28.9375,0.0009057061806434773,-0.6428130030246358,-0.10319403133259646,0.7590399296058746,-46.02279041836193,77.33131265928323,142.32376477078424,0.53863525390625,0.3798828125,0.52886962890625,-0.53466796875,-45.8048713660061,77.41083509630786,-126.97965162296266,3.3141964940488937,,,,3,0,3,3
1788945443.1071458,531317266.0,-9.296875,-1.4140625,1.65234375,0.064453125,-0.03515625,-0.0078125,23.625,8.125,-28.9375,23.625,8.125,-28.9375,0.0009523117565530202,-0.6426449545526144,-0.10308724235286289,0.7591966648731201,-45.92067965150689,77.31484446252834,142.41346994521842,0.53863525390625,0.3798828125,0.52886962890625,-0.53466796875,-45.8048713660061,77.41083509630786,-126.97965162296266,3.328155353047864,,,,3,0,3,3
1788945443.111081,531321019.0,-9.296875,-1.375,1.65234375,0.064453125,-0.03515625,-0.0078125,23.125,8.0625,-32.3125,23.125,8.0625,-32.3125,0.0009907501601868658,-0.642521283420106,-0.10290934094031581,0.7593254152953989,-45.8121282808842,77.30704430304662,142.50440007696423,0.53863525390625,0.3798828125,0.52886962890625,-0.53466796875,-45.8048713660061,77.41083509630786,-126.97965162296266,3.3501688731041437,,,,3,0,3,3
1788945443.1055331,531326502.0,-9.296875,-1.3359375,1.65234375,0.060546875,-0.021484375,-0.017578125,23.125,8.0625,-32.3125,23.125,8.0625,-32.3125,0.0010478384662857235,-0.6423753962962041,-0.10266168633280182,0.7594822778887923,-45.67385250948343,77.29889732307628,142.61783105871234,0.53857421875,0.37994384765625,0.52862548828125,-0.534912109375,-45.721068235474995,77.39067577092408,-126.93057249963752,3.3841615594538075,,,,3,0,3,3
1788945443.1120806,531331685.0,-9.296875,-1.3359375,1.65234375,0.056640625,-0.005859375,-0.025390625,23.125,8.0625,-32.3125,23.125,8.0625,-32.3125,0.0011136024264775792,-0.6422656074682306,-0.10244948519494106,0.7596036810971838,-45.56626799261664,77.29268377901964,142.7027441357969,0.53857421875,0.37994384765625,0.52862548828125,-0.534912109375,-45.721068235474995,77.39067577092408,-126.93057249963752,3.410262834170791,,,,3,0,3,3
1788945443.1186283,531332338.0,-9.296875,-1.3359375,1.65234375,0.04296875,0.00390625,-0.029296875,23.125,8.0625,-32.3125,23.125,8.0625,-32.3125,0.001120179361042185,-0.6422540041588151,-0.10242711755255529,0.7596164985899416,-45.554837759463545,77.29204273754974,142.7118135423376,0.53839111328125,0.3800048828125,0.52850341796875,-0.53515625,-45.72680588639532,77.37121975414861,-126.9709869811337,3.4300971888828036,,,,3,0,3,3
1788945443.1166751,531336268.0,-9.26171875,-1.375,1.65234375,0.04296875,0.00390625,-0.029296875,23.125,8.0625,-32.3125,23.125,8.0625,-32.3125,0.0011743293839555182,-0.6421748151351074,-0.10230704457028336,0.7596995434959682,-45.49038253809809,77.28567385752073,142.76207868363903,0.53839111328125,0.3800048828125,0.52850341796875,-0.53515625,-45.72680588639532,77.37121975414861,-126.9709869811337,3.445041039605363,,,,3,0,3,3
1788945443.1347263,531340350.0,-9.26171875,-1.4140625,1.65234375,0.037109375,0.017578125,-0.041015625,26.1875,6.4375,-35.375,26.1875,6.4375,-35.375,0.001286382643043248,-0.6421715403232517,-0.10212413678445853,0.7597267394955816,-45.45148988649721,77.2876254682655,142.77684526951796,0.53839111328125,0.3800048828125,0.52850341796875,-0.53515625,-45.72680588639532,77.37121975414861,-126.9709869811337,3.4672545074651655,,,,3,0,2,3
1788945443.1307912,531346033.0,-9.296875,-1.4140625,1.65234375,0.02734375,0.02734375,-0.04296875,26.1875,6.4375,-35.375,26.1875,6.4375,-35.375,0.0014304318570982808,-0.64218931169587,-0.10189259704678091,0.7597425488119968,-45.412545971650495,77.29245581310045,142.78505018272315,0.5382080078125,0.3800048828125,0.528564453125,-0.53533935546875,-45.82379259410092,77.3741859794798,-127.08713487490316,3.375847691412126,,,,3,0,2,3
1788945443.1277602,531347839.0,-9.33984375,-1.453125,1.61328125,0.01171875,0.0390625,-0.041015625,26.1875,6.4375,-35.375,26.1875,6.4375,-35.375,0.0014696131043661629,-0.6422065832499427,-0.10182626745480777,0.7597367675214751,-45.40632847004785,77.29532872772901,142.78262053125067,0.5382080078125,0.3800048828125,0.528564453125,-0.53533935546875,-45.82379259410092,77.3741859794798,-127.08713487490316,3.384010645038171,,,,3,0,2,3
1788945443.1504314,531356222.0,-9.3359375,-1.56640625,1.61328125,-0.005859375,0.048828125,-0.04296875,26.1875,6.4375,-35.375,26.1875,6.4375,-35.375,0.0016666846107369314,-0.6423054426635222,-0.10159393301165931,0.7596838903533808,-45.415739428449236,77.30651732343881,142.73802258255267,0.5379638671875,0.38006591796875,0.5286865234375,-0.535400390625,-45.94724303976303,77.37025329157804,-127.22414141286455,3.45863797772228,,,,3,0,2,3
1788945443.1434653,531360082.0,-9.3359375,-1.56640625,1.61328125,-0.01953125,0.0546875,-0.046875,27.0625,8.3125,-29.375,27.0625,8.3125,-29.375,0.0017648958379367797,-0.6422719263497103,-0.10172938751447276,0.7596938787970084,-45.47102425380589,77.29126560763991,142.68590286910288,0.5379638671875,0.38006591796875,0.5286865234375,-0.535400390625,-45.94724303976303,77.37025329157804,-127.22414141286455,3.444231794115556,,,,3,0,2,3
1788945443.1504314,531363788.0,-9.3359375,-1.56640625,1.61328125,-0.03125,0.064453125,-0.0390625,27.0625,8.3125,-29.375,27.0625,8.3125,-29.375,0.0018344586972741527,-0.642254718427461,-0.10186233963164625,0.7596904469477802,-45.52589269039674,77.27950039025228,142.63630917156476,0.5377197265625,0.38006591796875,0.52899169921875,-0.535400390625,-46.16218406156118,77.38862267407464,-127.43696492328982,3.337980438378727,,,,3,0,2,3
1788945443.1664968,531367271.0,-9.375,-1.60546875,1.61328125,-0.037109375,0.080078125,-0.037109375,23.6875,8.625,-28.5,23.6875,8.625,-28.5,0.0018869088886985129,-0.6422921095222978,-0.10210388520505795,0.759626278011941,-45.63876073847994,77.2698202344483,142.5389745530481,0.5377197265625,0.38006591796875,0.52899169921875,-0.535400390625,-46.16218406156118,77.38862267407464,-127.43696492328982,3.3089863186712782,,,,3,0,3,3
1788945443.1642225,531371954.0,-9.3359375,-1.60546875,1.578125,-0.041015625,0.083984375,-0.033203125,23.6875,8.625,-28.5,23.6875,8.625,-28.5,0.0019485676487328335,-0.6423609863373202,-0.10243863495323735,0.7595228057042006,-45.80002615293174,77.25885567764267,142.40011922065938,0.5374755859375,0.38006591796875,0.52935791015625,-0.53521728515625,-46.37863303662848,77.3876197091769,-127.63424468822653,3.4407848541188595,,,,3,0,3,3
1788945443.171595,531377036.0,-9.37890625,-1.64453125,1.578125,-0.044921875,0.0859375,-0.037109375,23.6875,8.625,-28.5,23.6875,8.625,-28.5,0.002027815606692565,-0.642442492155429,-0.10281596874945456,0.7594026657887749,-45.985541912710985,77.24630835952529,142.23907028697738,0.5374755859375,0.38006591796875,0.52935791015625,-0.53521728515625,-46.37863303662848,77.3876197091769,-127.63424468822653,3.3969810878551625,,,,3,0,3,3
1788945443.1755302,531379689.0,-9.33984375,-1.64453125,1.578125,-0.044921875,0.0859375,-0.037109375,23.75,8.6875,-28.125,23.75,8.6875,-28.125,0.0020679487232896335,-0.642484468210158,-0.10301290904985483,0.7593403533764518,-46.081716757333915,77.23972210686014,142.15576646077835,0.5374755859375,0.38006591796875,0.52935791015625,-0.53521728515625,-46.37863303662848,77.3876197091769,-127.63424468822653,3.3741446805297395,,,,3,0,3,3
1788945443.1782317,531386372.0,-9.296875,-1.64453125,1.5390625,-0.044921875,0.099609375,-0.02734375,23.75,8.6875,-28.125,23.75,8.6875,-28.125,0.002153286121390944,-0.6426468788088974,-0.10349750971755314,0.7591367584291561,-46.34163467811868,77.23072429454663,141.92855924084472,0.5372314453125,0.380126953125,0.52972412109375,-0.5350341796875,-46.60152115124845,77.40367070300964,-127.84269141859225,3.391967235770327,,,,3,0,3,3
1788945443.1821668,531386925.0,-9.296875,-1.64453125,1.5,-0.05078125,0.09765625,-0.02734375,23.75,8.6875,-28.125,23.75,8.6875,-28.125,0.002159215932320611,-0.6426616699728559,-0.10353939295792523,0.7591185084294559,-46.364096034842134,77.23009997977569,141.9090420230831,0.5372314453125,0.380126953125,0.52972412109375,-0.5350341796875,-46.60152115124845,77.40367070300964,-127.84269141859225,3.3870770504283105,,,,3,0,3,3
1788945443.1821668,531391455.0,-9.30078125,-1.60546875,1.5,-0.05078125,0.09765625,-0.02734375,23.75,8.6875,-28.125,23.75,8.6875,-28.125,0.002194245399299234,-0.6427810670952807,-0.10388497467796919,0.7589700897315635,-46.54499585935165,77.22535753981268,141.75356767538858,0.5372314453125,0.380126953125,0.52972412109375,-0.5350341796875,-46.60152115124845,77.40367070300964,-127.84269141859225,3.3466542559414485,,,,3,0,3,3
1788945443.1908581,531395438.0,-9.3359375,-1.56640625,1.5,-0.04296875,0.109375,-0.0234375,23.75,8.6875,-28.125,23.75,8.6875,-28.125,0.002212295065704605,-0.6429023732351722,-0.10417395058658974,0.7588276696709922,-46.70339225275553,77.22431651455635,141.61732782602135,0.53692626953125,0.38018798828125,0.53021240234375,-0.5347900390625,-46.89517399416804,77.42488966211924,-128.11495020165424,3.3995380132810373,,,,3,0,3,3
1788945443.1979003,531398821.0,-9.33984375,-1.52734375,1.5390625,-0.048828125,0.1171875,-0.01171875,23.5,9.3125,-27.4375,23.5,9.3125,-27.4375,0.0021915283003539074,-0.6430159790480472,-0.10441425748028087,0.7586984320053863,-46.8327692166796,77.22677407739826,141.5092737396723,0.53692626953125,0.38018798828125,0.53021240234375,-0.5347900390625,-46.89517399416804,77.42488966211924,-128.11495020165424,3.370839249661343,,,,3,0,3,3
1788945443.199134,531406880.0,-9.33984375,-1.4921875,1.4609375,-0.03515625,0.1171875,-0.015625,23.5,9.3125,-27.4375,23.5,9.3125,-27.4375,0.0021628128724441977,-0.6433421120312925,-0.1049530999991551,0.7583476089025152,-47.159923461555024,77.23899616904994,141.22841833799114,0.53668212890625,0.38037109375,0.5306396484375,-0.5345458984375,-47.157488018419706,77.48022533202428,-128.36476554666436,3.1898552874157557,,,,3,0,3,3
1788945443.204728,531407033.0,-9.37890625,-1.4921875,1.4609375,-0.037109375,0.12109375,-0.017578125,23.5,9.3125,-27.4375,23.5,9.3125,-27.4375,0.0021621018881168535,-0.643348452913237,-0.10496352636999029,0.7583407885519191,-47.16623983298495,77.23924145666804,141.22301046117377,0.53668212890625,0.38037109375,0.5306396484375,-0.5345458984375,-47.157488018419706,77.48022533202428,-128.36476554666436,3.1885408349354125,,,,3,0,3,3
1788945443.204728,531410986.0,-9.3359375,-1.4140625,1.421875,-0.037109375,0.12109375,-0.017578125,23.5,9.3125,-27.4375,23.5,9.3125,-27.4375,0.002113984569658504,-0.6435296196103016,-0.10522073477517285,0.7581515394212641,-47.326623967883705,77.24967627094817,141.08750186163627,0.53668212890625,0.38037109375,0.5306396484375,-0.5345458984375,-47.157488018419706,77.48022533202428,-128.36476554666436,3.1555362486666287,,,,3,0,3,3
1788945443.204728,531415169.0,-9.3359375,-1.4140625,1.34765625,-0.044921875,0.12109375,-0.021484375,23.5,9.3125,-27.4375,23.5,9.3125,-27.4375,0.0020634800983105484,-0.6437492269607342,-0.10549116210754869,0.7579276281773478,-47.50905425016389,77.26375926011032,140.93119287895203,0.536376953125,0.3804931640625,0.5311279296875,-0.53424072265625,-47.44885390312361,77.50620655121988,-128.63454159834575,3.2430115683324967,,,,3,0,3,3
1788945443.2069898,531418952.0,-9.375,-1.375,1.34765625,-0.0390625,0.115234375,-0.03125,23.1875,9.5625,-31.4375,23.1875,9.5625,-31.4375,0.001983540957658685,-0.6439535645524285,-0.10569276943127259,0.7577261449596673,-47.65466299652808,77.281006657253,140.80845930082103,0.536376953125,0.3804931640625,0.5311279296875,-0.53424072265625,-47.44885390312361,77.50620655121988,-128.63454159834575,3.216582403320684,,,,3,0,3,3
1788945443.2138126,531422858.0,-9.33984375,-1.375,1.26953125,-0.033203125,0.107421875,-0.033203125,23.1875,9.5625,-31.4375,23.1875,9.5625,-31.4375,0.0019320746190616522,-0.644172291923376,-0.10587619185261085,0.7575147242163947,-47.80759424506238,77.29904272894832,140.6745820774683,0.53607177734375,0.38067626953125,0.53155517578125,-0.5340576171875,-47.73458262544656,77.55666290160035,-128.91453334890707,3.067934645496762,,,,3,0,3,3
1788945443.2181573,531426841.0,-9.375,-1.375,1.19140625,-0.033203125,0.109375,-0.04296875,23.1875,9.5625,-31.4375,23.1875,9.5625,-31.4375,0.0019100199850960306,-0.6444092779584844,-0.10605618690928326,0.7572880030232517,-47.974982484532575,77.31751173148498,140.52355940322855,0.53607177734375,0.38067626953125,0.53155517578125,-0.5340576171875,-47.73458262544656,77.55666290160035,-128.91453334890707,3.043227748464014,,,,3,0,3,3
1788945443.2225223,531430794.0,-9.3359375,-1.4921875,1.23046875,-0.033203125,0.109375,-0.04296875,26.875,8.375,-34.75,26.875,8.375,-34.75,0.001934846550803438,-0.6446553534379778,-0.10601159616145428,0.7570847199170524,-48.08095967298568,77.34507668186617,140.4116800234576,0.53607177734375,0.38067626953125,0.53155517578125,-0.5340576171875,-47.73458262544656,77.55666290160035,-128.91453334890707,3.046463704676868,,,,3,0,2,3
1788945443.2312524,531434700.0,-9.296875,-1.52734375,1.15625,-0.029296875,0.095703125,-0.04296875,26.875,8.375,-34.75,26.875,8.375,-34.75,0.001977564865347237,-0.6448922838170625,-0.10599620717600056,0.756884955310065,-48.19713888564792,77.36918703867165,140.29055237618587,0.53570556640625,0.3807373046875,0.531982421875,-0.53387451171875,-48.01677323745645,77.55511967807251,-129.18510221406447,3.2606219576087763,,,,3,0,2,3
1788945443.2312524,531438683.0,-9.30078125,-1.56640625,1.078125,-0.02734375,0.078125,-0.0390625,27.125,8.1875,-33.0625,27.125,8.1875,-33.0625,0.0020230145593406515,-0.6451146666806455,-0.10600901641694761,0.756693506437001,-48.317154803913056,77.39014930835945,140.16769623772643,0.53570556640625,0.3807373046875,0.531982421875,-0.53387451171875,-48.01677323745645,77.55511967807251,-129.18510221406447,3.2577279025996297,,,,3,0,2,3
1788945443.2401102,531442389.0,-9.30078125,-1.56640625,1.0390625,-0.017578125,0.060546875,-0.0390625,27.125,8.1875,-33.0625,27.125,8.1875,-33.0625,0.002073023759311243,-0.6452974944017106,-0.10601502345004128,0.7565366224408802,-48.417444931782335,77.40684877867265,140.06367241530305,0.53546142578125,0.38079833984375,0.5323486328125,-0.53375244140625,-48.25754772551835,77.58296827427415,-129.4159826932905,3.1915820786067135,,,,3,0,2,3
1788945443.2401102,531445766.0,-9.21875,-1.60546875,1.0,-0.017578125,0.060546875,-0.0390625,27.125,8.1875,-33.0625,27.125,8.1875,-33.0625,0.0021300554416092284,-0.6454647021442668,-0.10603724696446602,0.7563906949492607,-48.51768393862839,77.42063399035496,139.96047536954532,0.53546142578125,0.38079833984375,0.5323486328125,-0.53375244140625,-48.25754772551835,77.58296827427415,-129.4159826932905,3.188225825104561,,,,3,0,2,3
1788945443.2451663,531449649.0,-9.26171875,-1.64453125,1.0390625,-0.01953125,0.041015625,-0.037109375,26.0,6.5625,-34.75,26.0,6.5625,-34.75,0.002198976135116831,-0.6456086634427579,-0.1059658594859197,0.7562776307778931,-48.57767208052277,77.43576697128795,139.88889470398883,0.53546142578125,0.38079833984375,0.5323486328125,-0.53375244140625,-48.25754772551835,77.58296827427415,-129.4159826932905,3.1963114422738768,,,,3,0,2,3
1788945443.2451663,531453455.0,-9.296875,-1.68359375,0.92578125,-0.015625,0.025390625,-0.033203125,26.0,6.5625,-34.75,26.0,6.5625,-34.75,0.0022647950688415358,-0.6457393332864927,-0.10591312276360224,0.7561732569831295,-48.63713176543916,77.44871603718398,139.81963885583653,0.5352783203125,0.3807373046875,0.5325927734375,-0.53375244140625,-48.42492594050531,77.58330379161761,-129.57643901882972,3.1910275530205494,,,,3,0,2,3
1788945443.2567372,531458014.0,-9.3359375,-1.71875,0.96484375,-0.01953125,0.005859375,-0.029296875,26.4375,8.375,-29.125,26.4375,8.375,-29.125,0.002327645942813237,-0.6458553109733031,-0.1060462006228274,0.7560553568922094,-48.752546739933905,77.45113468750598,139.70994453051523,0.5352783203125,0.3807373046875,0.5325927734375,-0.53375244140625,-48.42492594050531,77.58330379161761,-129.57643901882972,3.175285182152071,,,,3,0,3,3
1788945443.258705,531462168.0,-9.30078125,-1.7578125,0.96484375,-0.01953125,0.005859375,-0.029296875,26.4375,8.375,-29.125,26.4375,8.375,-29.125,0.0023947060196225166,-0.6459571804519113,-0.10617744132492683,0.7559496923469103,-48.86152863637824,77.45184061602832,139.60620299317424,0.5352783203125,0.3807373046875,0.5325927734375,-0.53375244140625,-48.42492594050531,77.58330379161761,-129.57643901882972,3.160006875894157,,,,3,0,3,3
1788945443.2609122,531465874.0,-9.30078125,-1.796875,0.92578125,-0.017578125,-0.01953125,-0.01953125,26.4375,8.375,-29.125,26.4375,8.375,-29.125,0.0024412947477352636,-0.6460130845341701,-0.10628365299845059,0.7558868432483179,-48.93520407312127,77.44997011973716,139.53741636455976,0.53521728515625,0.38067626953125,0.53265380859375,-0.53375244140625,-48.46357062129351,77.566039210516,-129.61102598335663,3.2535928701562273,,,,3,0,3,3
1788945443.265309,531469857.0,-9.296875,-1.8359375,0.92578125,-0.00390625,-0.029296875,-0.0078125,23.5,8.8125,-27.5,23.5,8.8125,-27.5,0.002484558842530421,-0.6460343628166532,-0.10642122322016545,0.7558491597374194,-49.00206983945659,77.4430103459765,139.47831597281902,0.53521728515625,0.38067626953125,0.53265380859375,-0.53375244140625,-48.46357062129351,77.566039210516,-129.61102598335663,3.238239243788816,,,,3,0,3,3
1788945443.265309,531473363.0,-9.296875,-1.8359375,0.92578125,0.0,-0.05078125,0.005859375,23.5,8.8125,-27.5,23.5,8.8125,-27.5,0.0025047966803643873,-0.6460273846378074,-0.10652136809577603,0.7558409504853707,-49.03733324828166,77.43616947252285,139.44964013024048,0.5352783203125,0.38055419921875,0.5325927734375,-0.5338134765625,-48.41553192721386,77.54365936104952,-129.5590358674297,3.286983529606693,,,,3,0,3,3
1788945443.2734432,531476946.0,-9.30078125,-1.91015625,0.96484375,0.005859375,-0.06640625,0.021484375,23.5625,7.5,-29.625,23.5625,7.5,-29.625,0.0025413119540809398,-0.6460260273592047,-0.10653170664794431,0.7558405315850113,-49.04833823762998,77.43342389698394,139.4365178264823,0.5352783203125,0.38055419921875,0.5325927734375,-0.5338134765625,-48.41553192721386,77.54365936104952,-129.5590358674297,3.286256132944592,,,,3,0,3,3
1788945443.2734432,531481299.0,-9.296875,-1.875,1.0,0.005859375,-0.06640625,0.021484375,23.5625,7.5,-29.625,23.5625,7.5,-29.625,0.0025858205980243613,-0.64602625003647,-0.10653723336307465,0.7558394113189607,-49.060245190342954,77.43062686168335,139.4214472503167,0.5352783203125,0.38055419921875,0.5325927734375,-0.5338134765625,-48.41553192721386,77.54365936104952,-129.5590358674297,3.286166320664073,,,,3,0,3,3
1788945443.2784648,531485005.0,-9.296875,-1.875,1.078125,0.0078125,-0.091796875,0.03515625,23.5625,7.5,-29.625,23.5625,7.5,-29.625,0.0026186855576782143,-0.6459882888167938,-0.1065271719945956,0.7558731605397393,-49.04579765387148,77.42516968129253,139.43243045599547,0.5355224609375,0.38043212890625,0.5323486328125,-0.533935546875,-48.24267761884711,77.5333365390585,-129.38641420538727,3.199515263713561,,,,3,0,3,3
1788945443.2804613,531488788.0,-9.296875,-1.875,1.078125,0.01953125,-0.1015625,0.05078125,23.875,8.875,-27.125,23.875,8.875,-27.125,0.0026039437581907897,-0.6458965034062732,-0.10657829609066688,0.7559444378834097,-49.01560517350062,77.41364644718594,139.4681011941357,0.5355224609375,0.38043212890625,0.5323486328125,-0.533935546875,-48.24267761884711,77.5333365390585,-129.38641420538727,3.1936580987301992,,,,3,0,3,3
1788945443.2804613,531492694.0,-9.296875,-1.875,1.15625,0.025390625,-0.111328125,0.064453125,23.875,8.875,-27.125,23.875,8.875,-27.125,0.0025795255438909336,-0.6457775056135018,-0.10661685782511797,0.7560407428962218,-48.965953217833814,77.40036940562153,139.52301009167786,0.535888671875,0.38037109375,0.53192138671875,-0.5340576171875,-47.94918901275984,77.52263880469305,-129.1001236403913,3.11586698498452,,,,3,0,3,3
1788945443.2784936,531496277.0,-9.30078125,-1.875,1.19140625,0.037109375,-0.126953125,0.0703125,23.75,6.75,-28.3125,23.75,6.75,-28.3125,0.002629763354963674,-0.6456970740705867,-0.10644446216678202,0.7561335525920037,-48.87982945094754,77.39733057720149,139.59095965194427,0.535888671875,0.38037109375,0.53192138671875,-0.5340576171875,-47.94918901275984,77.52263880469305,-129.1001236403913,3.1367830219814983,,,,3,0,3,3
1788945443.2804613,531500454.0,-9.30078125,-1.8359375,1.19140625,0.037109375,-0.126953125,0.0703125,23.75,6.75,-28.3125,23.75,6.75,-28.3125,0.0026729700804395723,-0.6456092219697968,-0.10622465375728357,0.7562393210304843,-48.77249015598249,77.39619913864782,139.67680835698968,0.535888671875,0.38037109375,0.53192138671875,-0.5340576171875,-47.94918901275984,77.52263880469305,-129.1001236403913,3.1632055093472555,,,,3,0,3,3
1788945443.296917,531505136.0,-9.2578125,-1.7578125,1.23046875,0.04296875,-0.130859375,0.08984375,23.75,6.75,-28.3125,23.75,6.75,-28.3125,0.0026751853811603516,-0.645501775635534,-0.10587743657637766,0.7563797124847836,-48.603202981505774,77.4014839251815,139.8174891159795,0.53631591796875,0.38031005859375,0.5313720703125,-0.5341796875,-47.574254771901785,77.4942856560242,-128.73501155366114,3.252660311995707,,,,3,0,3,3
1788945443.296917,531508519.0,-9.30078125,-1.7578125,1.421875,0.05859375,-0.138671875,0.095703125,23.75,7.75,-28.25,23.75,7.75,-28.25,0.0027142991784976896,-0.645291878317373,-0.10578639009149486,0.7565713872656145,-48.48072133701052,77.3810267701673,139.92949750159897,0.53631591796875,0.38031005859375,0.5313720703125,-0.5341796875,-47.574254771901785,77.4942856560242,-128.73501155366114,3.2637420502066496,,,,3,0,3,3
1788945443.307749,531513002.0,-9.26171875,-1.68359375,1.3828125,0.072265625,-0.1328125,0.099609375,23.75,7.75,-28.25,23.75,7.75,-28.25,0.002807050508105637,-0.6450537286737539,-0.1056297074934781,0.7567959913255186,-48.334904100938054,77.35761879440645,140.05511557573453,0.53680419921875,0.38037109375,0.5306396484375,-0.53436279296875,-47.10584833318057,77.47764981614363,-128.2944346875573,3.2468211705504135,,,,3,0,3,3
1788945443.3110645,531516055.0,-9.26171875,-1.68359375,1.4609375,0.072265625,-0.1328125,0.099609375,23.75,7.75,-28.25,23.75,7.75,-28.25,0.002825668078979235,-0.6448477780403828,-0.10549178441021896,0.7569906486729122,-48.194585422328736,77.34091979916775,140.18277375170544,0.53680419921875,0.38037109375,0.5306396484375,-0.53436279296875,-47.10584833318057,77.47764981614363,-128.2944346875573,3.262729553318064,,,,3,0,3,3
1788945443.3140354,531520638.0,-9.2578125,-1.60546875,1.5390625,0.0703125,-0.134765625,0.111328125,22.125,8.5625,-32.375,22.125,8.5625,-32.375,0.0027357028971447856,-0.6445139944415079,-0.10528118084119939,0.7573044961304488,-47.94535428606026,77.31985128171475,140.4223145783167,0.53680419921875,0.38037109375,0.5306396484375,-0.53436279296875,-47.10584833318057,77.47764981614363,-128.2944346875573,3.2858290998892166,,,,3,0,3,3
1788945443.3140354,531524544.0,-9.21875,-1.56640625,1.5390625,0.078125,-0.126953125,0.119140625,22.125,8.5625,-32.375,22.125,8.5625,-32.375,0.002642675795675236,-0.6442406571271578,-0.10506769445318659,0.757567007961209,-47.72354247109567,77.30549248467135,140.6343961231336,0.53729248046875,0.3804931640625,0.52984619140625,-0.5345458984375,-46.60805207109242,77.46058149227402,-127.83113570963147,3.295954842134149,,,,3,0,3,3
1788945443.3140354,531528527.0,-9.26171875,-1.4921875,1.578125,0.08203125,-0.125,0.11328125,27.0625,8.625,-33.3125,27.0625,8.625,-33.3125,0.0025315344527966585,-0.6440020153196744,-0.10468910238768411,0.757822662262599,-47.45777475899349,77.30366256590851,140.8783159120734,0.53729248046875,0.3804931640625,0.52984619140625,-0.5345458984375,-46.60805207109242,77.46058149227402,-127.83113570963147,3.336767368102367,,,,3,0,3,3
1788945443.3299634,531532033.0,-9.22265625,-1.453125,1.61328125,0.078125,-0.123046875,0.11328125,27.0625,8.625,-33.3125,27.0625,8.625,-33.3125,0.002423664280752027,-0.6437919324125395,-0.10436626582331024,0.7580460119083013,-47.225254022121774,77.30192146796584,141.09327849822287,0.53778076171875,0.38067626953125,0.52911376953125,-0.53466796875,-46.14185259521834,77.46542716108469,-127.39697155579114,3.264424474839225,,,,3,0,3,3
1788945443.3308947,531535986.0,-9.22265625,-1.4140625,1.61328125,0.078125,-0.123046875,0.11328125,27.0625,8.625,-33.3125,27.0625,8.625,-33.3125,0.0022906253618011686,-0.6435599954731723,-0.10399389223700987,0.7582945045557297,-46.96002287070667,77.30131613320212,141.33895053266164,0.53778076171875,0.38067626953125,0.52911376953125,-0.53466796875,-46.14185259521834,77.46542716108469,-127.39697155579114,3.304718110647124,,,,3,0,3,3
1788945443.3318722,531540746.0,-9.22265625,-1.4140625,1.61328125,0.080078125,-0.115234375,0.11328125,26.1875,8.375,-35.1875,26.1875,8.375,-35.1875,0.002147859208233007,-0.6433105812599785,-0.10351457568085243,0.758572089759031,-46.6478021934707,77.30408988462057,141.6236385508769,0.53778076171875,0.38067626953125,0.52911376953125,-0.53466796875,-46.14185259521834,77.46542716108469,-127.39697155579114,3.3575433721286565,,,,3,0,2,3
1788945443.3318722,531544252.0,-9.26171875,-1.3359375,1.65234375,0.078125,-0.103515625,0.11328125,26.1875,8.375,-35.1875,26.1875,8.375,-35.1875,0.002027825508825737,-0.6431452082182085,-0.10316205716322377,0.7587606467335497,-46.42292695747825,77.30876363680025,141.82947281244358,0.53826904296875,0.38092041015625,0.52838134765625,-0.5347900390625,-45.68140280494262,77.48717276706495,-126.97349856189527,3.1845927146003703,,,,3,0,2,3
1788945443.3443277,531547858.0,-9.2578125,-1.296875,1.65234375,0.064453125,-0.08984375,0.109375,26.1875,8.375,-35.1875,26.1875,8.375,-35.1875,0.0018895644081096423,-0.6429964466416919,-0.10281946273114907,0.758933565759338,-46.20470511628495,77.31566221550051,142.03093735141258,0.53826904296875,0.38092041015625,0.52838134765625,-0.5347900390625,-45.68140280494262,77.48717276706495,-126.97349856189527,3.223201584738579,,,,3,0,2,3
1788945443.3471506,531556118.0,-9.26171875,-1.26171875,1.69140625,0.0546875,-0.083984375,0.103515625,25.5625,8.4375,-34.875,25.5625,8.4375,-34.875,0.0015548703615111666,-0.6426542495020203,-0.10210764686825713,0.7593201738569714,-45.72477740024518,77.32833433020885,142.47993905279532,0.53863525390625,0.38116455078125,0.5277099609375,-0.53485107421875,-45.26250955059911,77.47960897228734,-126.58818473884153,3.356088618506755,,,,3,0,2,3
1788945443.3471506,531559700.0,-9.296875,-1.296875,1.69140625,0.04296875,-0.068359375,0.099609375,27.1875,7.9375,-28.75,27.1875,7.9375,-28.75,0.0014011566531589908,-0.6425171100222522,-0.10183512596183641,0.7594731115773772,-45.53211104538977,77.33366869775558,142.66285220956658,0.53863525390625,0.38116455078125,0.5277099609375,-0.53485107421875,-45.26250955059911,77.47960897228734,-126.58818473884153,3.3854998788171935,,,,3,0,3,3
1788945443.3584013,531563407.0,-9.33984375,-1.26171875,1.69140625,0.025390625,-0.05859375,0.09765625,27.1875,7.9375,-28.75,27.1875,7.9375,-28.75,0.0012167821444677457,-0.6423945210310118,-0.10157303363893846,0.7596122152966822,-45.34224466980302,77.34169366901828,142.84630260417677,0.53900146484375,0.38134765625,0.5272216796875,-0.53485107421875,-44.93518716994476,77.49441971375741,-126.27909285236368,3.324339058271143,,,,3,0,3,3
1788945443.3633773,531567966.0,-9.37890625,-1.296875,1.69140625,0.01171875,-0.0390625,0.08984375,23.875,7.875,-27.25,23.875,7.875,-27.25,0.0009758227208148081,-0.6422431325086135,-0.10136709400587868,0.7597680690634112,-45.14564320694652,77.34680646369674,143.0457257771706,0.53900146484375,0.38134765625,0.5272216796875,-0.53485107421875,-44.93518716994476,77.49441971375741,-126.27909285236368,3.3455139652580463,,,,3,0,3,3
1788945443.3633773,531571143.0,-9.33984375,-1.296875,1.69140625,0.01171875,-0.0390625,0.08984375,23.875,7.875,-27.25,23.875,7.875,-27.25,0.0008110308051913743,-0.6421352824926835,-0.10122946062920515,0.7598777648462908,-45.01033474142603,77.34958701875529,143.18323193386536,0.53900146484375,0.38134765625,0.5272216796875,-0.53485107421875,-44.93518716994476,77.49441971375741,-126.27909285236368,3.3599201573790887,,,,3,0,3,3
1788945443.3633773,531575049.0,-9.41796875,-1.18359375,1.61328125,0.0078125,-0.017578125,0.0859375,23.875,7.875,-27.25,23.875,7.875,-27.25,0.0005521578643500575,-0.6420817771935438,-0.10101413073236806,0.7599518615741772,-44.849310020790455,77.36699309434847,143.34767743234576,0.539306640625,0.38153076171875,0.52691650390625,-0.53472900390625,-44.700823247031025,77.51967342257998,-126.04892896403277,3.3127882577500696,,,,3,0,3,3
1788945443.3633773,531578832.0,-9.37890625,-1.3359375,1.578125,-0.0078125,-0.009765625,0.076171875,22.75,8.6875,-28.25,22.75,8.6875,-28.25,0.00034851046895383747,-0.6420274934175131,-0.10109025120809147,0.7599877218397434,-44.80348880736439,77.36820608172,143.41635525851368,0.539306640625,0.38153076171875,0.52691650390625,-0.53472900390625,-44.700823247031025,77.51967342257998,-126.04892896403277,3.30188314384222,,,,3,0,3,3
1788945443.3796148,531583514.0,-9.37890625,-1.64453125,1.65234375,-0.01953125,-0.00390625,0.0703125,22.75,8.6875,-28.25,22.75,8.6875,-28.25,0.00024156333091908785,-0.6419611501574344,-0.10122720506413517,0.7600255760766244,-44.796857596240976,77.36016992084102,143.442985555511,0.53955078125,0.38165283203125,0.5267333984375,-0.5345458984375,-44.530124803601396,77.5330636464487,-125.87027582787884,3.328346090747819,,,,3,0,3,3
1788945443.3805587,531586997.0,-9.453125,-1.4921875,1.69140625,0.005859375,0.013671875,0.076171875,23.75,9.25,-27.75,23.75,9.25,-27.75,0.00014974710729361446,-0.641932822583621,-0.10129099046659693,0.7600410279162073,-44.784897053745794,77.35895196672998,143.46767399892767,0.53955078125,0.38165283203125,0.5267333984375,-0.5345458984375,-44.530124803601396,77.5330636464487,-125.87027582787884,3.3202081792752822,,,,3,0,3,3
1788945443.3805587,531591150.0,-9.41796875,-1.453125,1.65234375,0.005859375,0.013671875,0.076171875,23.75,9.25,-27.75,23.75,9.25,-27.75,2.96897588332901e-05,-0.6419063980188808,-0.10137286550949794,0.7600524438743275,-44.77341864183842,77.35863911449387,143.49566012225125,0.53955078125,0.38165283203125,0.5267333984375,-0.5345458984375,-44.530124803601396,77.5330636464487,-125.87027582787884,3.3096932898822673,,,,3,0,3,3
1788945443.3805587,531594857.0,-9.375,-1.296875,1.65234375,0.0078125,0.033203125,0.07421875,23.75,9.25,-27.75,23.75,9.25,-27.75,-0.00012396540722913344,-0.6419011834315594,-0.10142460677690958,0.7600499355186412,-44.752671865750195,77.36388123994912,143.5331533741198,0.53973388671875,0.38189697265625,0.526611328125,-0.53436279296875,-44.41376309088246,77.58153498113752,-125.75619184809673,3.1543137287533294,,,,3,0,3,3
1788945443.3956666,531598839.0,-9.3359375,-1.22265625,1.61328125,-0.00390625,0.04296875,0.064453125,24.125,8.25,-27.8125,24.125,8.25,-27.8125,-0.0003624306667509024,-0.6419078138315883,-0.10131390977777047,0.7600590232814189,-44.659502688552884,77.3822382896346,143.636618707555,0.53973388671875,0.38189697265625,0.526611328125,-0.53436279296875,-44.41376309088246,77.58153498113752,-125.75619184809673,3.1641758698846276,,,,3,0,3,3
1788945443.3974817,531602546.0,-9.296875,-1.453125,1.65234375,-0.01953125,0.0546875,0.046875,24.125,8.25,-27.8125,24.125,8.25,-27.8125,-0.00044459509420545723,-0.6418951387033793,-0.10138624202590031,0.7600600391890348,-44.659783216991954,77.3819103382027,143.64896884730064,0.53973388671875,0.3822021484375,0.526611328125,-0.53411865234375,-44.389014984463046,77.61876408861396,-125.73439209697435,3.191571564365517,,,,3,0,3,3
1788945443.3955286,531606875.0,-9.296875,-1.4140625,1.65234375,-0.01953125,0.0546875,0.046875,24.125,8.25,-27.8125,24.125,8.25,-27.8125,-0.0005633162865438863,-0.6418769154850691,-0.10145040904428496,0.7600667882146162,-44.64597740284207,77.38325021918526,143.6777126804448,0.53973388671875,0.3822021484375,0.526611328125,-0.53411865234375,-44.389014984463046,77.61876408861396,-125.73439209697435,3.1829188985341803,,,,3,0,3,3
1788945443.3974817,531610482.0,-9.33984375,-1.26171875,1.69140625,-0.013671875,0.0703125,0.041015625,22.9375,8.0625,-29.3125,22.9375,8.0625,-29.3125,-0.0007023503028859912,-0.6419008690208499,-0.10137415740279793,0.7600566171445405,-44.59622752267042,77.39675521355467,143.7324856069474,0.53973388671875,0.3822021484375,0.526611328125,-0.53411865234375,-44.389014984463046,77.61876408861396,-125.73439209697435,3.189799158248486,,,,3,0,3,3
1788945443.3974817,531614964.0,-9.30078125,-1.18359375,1.69140625,-0.00390625,0.087890625,0.052734375,22.9375,8.0625,-29.3125,22.9375,8.0625,-29.3125,-0.0008926568142302306,-0.6419769846188199,-0.1012209136641796,0.7600125531993062,-44.52974796288511,77.42236688838008,143.80178877384074,0.53973388671875,0.3824462890625,0.5267333984375,-0.5338134765625,-44.42017751478693,77.6613625593935,-125.7549795011965,3.2218082002656327,,,,3,0,3,3
1788945443.4144287,531617971.0,-9.296875,-1.03125,1.61328125,-0.029296875,0.115234375,0.041015625,23.0625,7.0,-32.75,23.0625,7.0,-32.75,-0.001003952126862291,-0.642107255132102,-0.1010841366014231,0.7599205631606435,-44.51189276628201,77.44926828434599,143.8173455837826,0.53973388671875,0.3824462890625,0.5267333984375,-0.5338134765625,-44.42017751478693,77.6613625593935,-125.7549795011965,3.2346472093875787,,,,3,0,3,3
1788945443.4144287,531622654.0,-9.33984375,-1.18359375,1.61328125,-0.044921875,0.126953125,0.01953125,23.0625,7.0,-32.75,23.0625,7.0,-32.75,-0.0011396487198758877,-0.6423180654805256,-0.10093004674884497,0.7597626798029936,-44.517621997130945,77.48746692686976,143.80980769137085,0.53955078125,0.3828125,0.52703857421875,-0.533447265625,-44.586572805654136,77.7277702380182,-125.91529531447617,3.2232346867081985,,,,3,0,3,3
1788945443.4104936,531627136.0,-9.375,-1.296875,1.65234375,-0.048828125,0.125,0.013671875,23.0625,7.0,-32.75,23.0625,7.0,-32.75,-0.0012409293350103309,-0.6424951236182741,-0.1008096456179284,0.7596287853757991,-44.528795798269925,77.51848263355194,143.79682400692417,0.53955078125,0.3828125,0.52703857421875,-0.533447265625,-44.586572805654136,77.7277702380182,-125.91529531447617,3.2337568859924737,,,,3,0,3,3
1788945443.4144287,531629813.0,-9.37890625,-1.18359375,1.65234375,-0.048828125,0.125,0.013671875,26.1875,8.8125,-35.125,26.1875,8.8125,-35.125,-0.0013394272378069443,-0.6425901042504146,-0.10076069177982132,0.7595547688259009,-44.52966789986241,77.53676245283964,143.79985555070252,0.53955078125,0.3828125,0.52703857421875,-0.533447265625,-44.586572805654136,77.7277702380182,-125.91529531447617,3.237253396089186,,,,3,0,2,3
1788945443.419469,531634496.0,-9.375,-1.10546875,1.65234375,-0.041015625,0.140625,0.009765625,26.1875,8.8125,-35.125,26.1875,8.8125,-35.125,-0.0015001516837336436,-0.6427939795268027,-0.10065935130293563,0.7593953808289159,-44.54527306754565,77.57315657962165,143.78881448665632,0.53936767578125,0.383056640625,0.5274658203125,-0.53302001953125,-44.80621226023504,77.78207765633857,-126.11021785456269,3.2989168057330063,,,,3,0,2,3
1788945443.4260538,531637702.0,-9.4140625,-1.0703125,1.61328125,-0.052734375,0.158203125,-0.00390625,25.875,6.9375,-35.375,25.875,6.9375,-35.375,-0.001567865237238943,-0.6429807661484648,-0.10058296453796067,0.7592472215335966,-44.58503111781629,77.60155916273702,143.7481226229618,0.53936767578125,0.383056640625,0.5274658203125,-0.53302001953125,-44.80621226023504,77.78207765633857,-126.11021785456269,3.304582419430706,,,,3,0,2,3
1788945443.4326386,531642185.0,-9.41796875,-1.18359375,1.5,-0.068359375,0.162109375,-0.017578125,25.875,6.9375,-35.375,25.875,6.9375,-35.375,-0.001649220625699326,-0.6432675881663122,-0.1005115388551767,0.7590135180897556,-44.66852761708197,77.641918778591,143.6651187261995,0.53900146484375,0.38330078125,0.528076171875,-0.5325927734375,-45.16696222345461,77.83753154288584,-126.4462382406964,3.383117263289722,,,,3,0,2,3
1788945443.4402459,531645938.0,-9.375,-1.296875,1.5,-0.068359375,0.162109375,-0.017578125,25.875,6.9375,-35.375,25.875,6.9375,-35.375,-0.0016982599719685275,-0.6435023207207904,-0.10045040803775197,0.7588225053759765,-44.74064214087078,77.67412468326219,143.5917624579976,0.53900146484375,0.38330078125,0.528076171875,-0.5325927734375,-45.16696222345461,77.83753154288584,-126.4462382406964,3.386403728694313,,,,3,0,2,3
1788945443.4457107,531649721.0,-9.45703125,-1.3359375,1.5390625,-0.078125,0.16796875,-0.029296875,25.6875,8.0625,-34.25,25.6875,8.0625,-34.25,-0.0017658115564557235,-0.6437168277108872,-0.10043501291305215,0.7586424294834385,-44.81590943836595,77.70293743136249,143.52053067910876,0.53900146484375,0.38330078125,0.528076171875,-0.5325927734375,-45.16696222345461,77.83753154288584,-126.4462382406964,3.384944183170371,,,,3,0,2,3
1788945443.4505062,531653627.0,-9.4140625,-1.296875,1.5,-0.0625,0.17578125,-0.029296875,25.6875,8.0625,-34.25,25.6875,8.0625,-34.25,-0.0018263879734573077,-0.6439661927049243,-0.10038880702991829,0.7584367438245622,-44.898066874078935,77.73673099085282,143.4392825358869,0.53863525390625,0.383544921875,0.52874755859375,-0.53216552734375,-45.569069683242255,77.91085214719982,-126.82203255092247,3.3371543308679366,,,,3,0,2,3
1788945443.4505062,531657610.0,-9.33984375,-1.3359375,1.5,-0.068359375,0.181640625,-0.033203125,26.6875,9.75,-29.3125,26.6875,9.75,-29.3125,-0.001860292963923279,-0.6442001677688659,-0.10072864478564958,0.7581928668065269,-45.11970428582169,77.74989390609542,143.2480808775492,0.53863525390625,0.383544921875,0.52874755859375,-0.53216552734375,-45.569069683242255,77.91085214719982,-126.82203255092247,3.294025125509542,,,,3,0,2,3
1788945443.4570339,531662293.0,-9.296875,-1.4140625,1.3828125,-0.076171875,0.1796875,-0.03515625,26.6875,9.75,-29.3125,26.6875,9.75,-29.3125,-0.0018700683988839746,-0.6445202462918855,-0.1011377954528489,0.7578662819356513,-45.41260238992147,77.76823764113415,142.98926972289206,0.5382080078125,0.38372802734375,0.52947998046875,-0.53173828125,-46.016414462807184,77.96667141992546,-127.2380868393851,3.2940115080515544,,,,3,0,2,3
1788945443.4570339,531665669.0,-9.3359375,-1.4921875,1.34765625,-0.076171875,0.1796875,-0.03515625,26.6875,9.75,-29.3125,26.6875,9.75,-29.3125,-0.0018609978443603797,-0.6447561974629343,-0.10142915357513321,0.7576266292344752,-45.62940392433647,77.78118554881445,142.79543246082326,0.5382080078125,0.38372802734375,0.52947998046875,-0.53173828125,-46.016414462807184,77.96667141992546,-127.2380868393851,3.25668542359415,,,,3,0,2,3
1788945443.4637704,531669452.0,-9.33984375,-1.4921875,1.26953125,-0.072265625,0.177734375,-0.037109375,23.5625,8.5,-29.1875,23.5625,8.5,-29.1875,-0.00184749325175484,-0.6450558405670799,-0.10171417270655118,0.7573333324168458,-45.8753429364682,77.80122470495124,142.57152134950218,0.5382080078125,0.38372802734375,0.52947998046875,-0.53173828125,-46.016414462807184,77.96667141992546,-127.2380868393851,3.219767298746479,,,,3,0,3,3
1788945443.4637704,531673158.0,-9.3359375,-1.56640625,1.26953125,-0.078125,0.166015625,-0.033203125,23.5625,8.5,-29.1875,23.5625,8.5,-29.1875,-0.0018266504568744044,-0.6453220288806129,-0.10200895943527444,0.7570669155262635,-46.111648650730544,77.81646588701963,142.35747969949975,0.53778076171875,0.3839111328125,0.53021240234375,-0.53131103515625,-46.468098109308336,78.02231500481511,-127.65851225536042,3.229805879253375,,,,3,0,3,3
1788945443.4746094,531677818.0,-9.3359375,-1.64453125,1.19140625,-0.07421875,0.166015625,-0.029296875,23.9375,7.5,-26.875,23.9375,7.5,-26.875,-0.0017651781768966127,-0.6456946811335887,-0.10230165611570398,0.7567097422775666,-46.4082523592874,77.84132859270623,142.07957313965846,0.53778076171875,0.3839111328125,0.53021240234375,-0.53131103515625,-46.468098109308336,78.02231500481511,-127.65851225536042,3.1913094199664402,,,,3,0,3,3
1788945443.4746094,531680994.0,-9.3359375,-1.64453125,1.19140625,-0.07421875,0.166015625,-0.029296875,23.9375,7.5,-26.875,23.9375,7.5,-26.875,-0.0017215969570002776,-0.6459484103465167,-0.10250063327267651,0.7564663293587004,-46.611244848740654,77.85801628412514,141.88914623268192,0.53778076171875,0.3839111328125,0.53021240234375,-0.53131103515625,-46.468098109308336,78.02231500481511,-127.65851225536042,3.1657239003756996,,,,3,0,3,3
1788945443.478054,531686177.0,-9.3359375,-1.68359375,1.19140625,-0.052734375,0.166015625,-0.01953125,23.9375,7.5,-26.875,23.9375,7.5,-26.875,-0.0016194263067550326,-0.6463551967440007,-0.10277891650311867,0.7560812333492387,-46.93110757839513,77.88462577557323,141.58346331530214,0.53741455078125,0.38409423828125,0.5308837890625,-0.5308837890625,-46.876740116566374,78.07756149350057,-128.03593079654092,3.1654082814958633,,,,3,0,3,3
1788945443.4800072,531689183.0,-9.296875,-1.71875,1.1171875,-0.04296875,0.15625,-0.01953125,23.9375,7.5,-26.875,23.9375,7.5,-26.875,-0.0015556977847605625,-0.6465840068198613,-0.10292358435302301,0.7558660183611261,-47.1089400481159,77.89966018760572,141.4121255378842,0.53741455078125,0.38409423828125,0.5308837890625,-0.5308837890625,-46.876740116566374,78.07756149350057,-128.03593079654092,3.146687439779302,,,,3,0,3,3
1788945443.4800072,531692589.0,-9.37890625,-1.7578125,1.15625,-0.03125,0.146484375,-0.0078125,23.9375,7.5,-26.875,23.9375,7.5,-26.875,-0.001477317556208767,-0.6468247969816722,-0.10306867688696547,0.755640355848751,-47.29675249915764,77.91507897979128,141.22964228815286,0.5369873046875,0.38433837890625,0.53143310546875,-0.530517578125,-47.23962590453707,78.10923087069465,-128.38369607411366,3.3145624862758862,,,,3,0,3,3
1788945443.478054,531697119.0,-9.296875,-1.68359375,1.1171875,-0.03125,0.146484375,-0.0078125,23.9375,7.5,-26.875,23.9375,7.5,-26.875,-0.0013921190689985222,-0.6471611058719784,-0.10324006046653303,0.7553291037461236,-47.54292848266567,77.9392709185114,140.99031740985313,0.5369873046875,0.38433837890625,0.53143310546875,-0.530517578125,-47.23962590453707,78.10923087069465,-128.38369607411366,3.2927677034803766,,,,3,0,3,3
1788945443.4963171,531700525.0,-9.30078125,-1.60546875,1.1171875,-0.01171875,0.140625,-0.001953125,23.6875,9.625,-28.375,23.6875,9.625,-28.375,-0.0013577913162752158,-0.6473730628690617,-0.1033982208600045,0.7551258714924666,-47.711928076394,77.9530994485224,140.83132664033315,0.5369873046875,0.38433837890625,0.53143310546875,-0.530517578125,-47.23962590453707,78.10923087069465,-128.38369607411366,3.273659407153734,,,,3,0,3,3
1788945443.4967415,531704432.0,-9.30078125,-1.60546875,1.078125,0.001953125,0.130859375,0.00390625,23.6875,9.625,-28.375,23.6875,9.625,-28.375,-0.001312849143295574,-0.6476083557424697,-0.10354640622800484,0.754903858618385,-47.891860072446185,77.96927717609154,140.65970263879203,0.53668212890625,0.38470458984375,0.5318603515625,-0.5302734375,-47.548573200851415,78.20273299802602,-128.69562041754358,2.9476964820393845,,,,3,0,3,3
1788945443.4967415,531708314.0,-9.3359375,-1.56640625,1.078125,0.005859375,0.123046875,0.01171875,23.5625,8.375,-27.1875,23.5625,8.375,-27.1875,-0.0012743955749581126,-0.6478576260588566,-0.10364159959965659,0.754676944861658,-48.058777010541014,77.98980457650931,140.4972599341291,0.53668212890625,0.38470458984375,0.5318603515625,-0.5302734375,-47.548573200851415,78.20273299802602,-128.69562041754358,2.933959614476057,,,,3,0,3,3
1788945443.4967415,531712897.0,-9.375,-1.4921875,1.19140625,0.01953125,0.115234375,0.009765625,23.5625,8.375,-27.1875,23.5625,8.375,-27.1875,-0.0012304233930150084,-0.648125046285867,-0.10375337449555824,0.7544320033747252,-48.24261641633,78.01110384520945,140.31879267534046,0.53631591796875,0.38507080078125,0.5321044921875,-0.530029296875,-47.751834072207274,78.22312072940873,-128.91161376534197,3.1498620520596936,,,,3,0,3,3
1788945443.5110047,531716250.0,-9.375,-1.4921875,1.19140625,0.01953125,0.115234375,0.009765625,23.5625,8.375,-27.1875,23.5625,8.375,-27.1875,-0.0011986962071187934,-0.6483194816185887,-0.10383672857193076,0.754253502929013,-48.37740413674538,78.02643361463986,140.18810250362515,0.53631591796875,0.38507080078125,0.5321044921875,-0.530029296875,-47.751834072207274,78.22312072940873,-128.91161376534197,3.1389615417921704,,,,3,0,3,3
1788945443.5133548,531720433.0,-9.37890625,-1.4921875,1.15625,0.025390625,0.109375,0.015625,22.3125,7.875,-33.4375,22.3125,7.875,-33.4375,-0.0011486114310486515,-0.6486115270038442,-0.10368471392617527,0.7540233735286785,-48.48205382249553,78.06274240185405,140.06665702856233,0.53631591796875,0.38507080078125,0.5321044921875,-0.530029296875,-47.751834072207274,78.22312072940873,-128.91161376534197,3.154866078715628,,,,3,0,3,3
1788945443.5113583,531724339.0,-9.37890625,-1.453125,1.1171875,0.029296875,0.107421875,0.01953125,22.3125,7.875,-33.4375,22.3125,7.875,-33.4375,-0.0011222417010162387,-0.6488818571548687,-0.10353301269953011,0.753811641797984,-48.57088283470649,78.0979965708201,139.96300556220154,0.5360107421875,0.385498046875,0.53228759765625,-0.52984619140625,-47.92823943325085,78.27467566826051,-129.10963998609313,3.146804761118895,,,,3,0,3,3
1788945443.5114017,531727746.0,-9.3359375,-1.453125,1.19140625,0.02734375,0.095703125,0.01953125,22.3125,7.875,-33.4375,22.3125,7.875,-33.4375,-0.0011001387179464456,-0.649093639853248,-0.1033639825598001,0.7536525217275136,-48.62325607987965,78.12797433154026,139.89478555758035,0.5360107421875,0.385498046875,0.53228759765625,-0.52984619140625,-47.92823943325085,78.27467566826051,-129.10963998609313,3.1650750986692047,,,,3,0,3,3
1788945443.529664,531731629.0,-9.33984375,-1.4140625,1.15625,0.02734375,0.087890625,0.02734375,26.5625,9.875,-34.25,26.5625,9.875,-34.25,-0.0011222785054081095,-0.6493011584510255,-0.10338818568085732,0.753470390384873,-48.73257632699223,78.15052895683979,139.78907655486097,0.5357666015625,0.3858642578125,0.532470703125,-0.5296630859375,-48.09001657010991,78.3264002357972,-129.28617835516312,3.1017873072129483,,,,3,0,2,3
1788945443.531978,531736711.0,-9.37890625,-1.375,1.078125,0.025390625,0.08203125,0.02734375,26.5625,9.875,-34.25,26.5625,9.875,-34.25,-0.001164994464557298,-0.6495806530559685,-0.1033730706843445,0.7532314559420421,-48.860283720434076,78.18393723728443,139.66336587073974,0.5357666015625,0.3858642578125,0.532470703125,-0.5296630859375,-48.09001657010991,78.3264002357972,-129.28617835516312,3.10145198302082,,,,3,0,2,3
1788945443.535913,531739564.0,-9.41796875,-1.4140625,1.15625,0.025390625,0.08203125,0.02734375,26.1875,7.375,-35.25,26.1875,7.375,-35.25,-0.0011644454185360611,-0.649718353035142,-0.10318827286211599,0.753138025955338,-48.86488363074937,78.20788158213747,139.643441471926,0.5357666015625,0.3858642578125,0.532470703125,-0.5296630859375,-48.09001657010991,78.3264002357972,-129.28617835516312,3.1223424616488993,,,,3,0,2,3
1788945443.539494,531743671.0,-9.41796875,-1.453125,1.15625,0.021484375,0.0703125,0.015625,26.1875,7.375,-35.25,26.1875,7.375,-35.25,-0.0011405637735210543,-0.6498979669570197,-0.10294502468854598,0.7530163700420368,-48.87576858883227,78.23790058486934,139.6105066042063,0.53558349609375,0.38616943359375,0.53253173828125,-0.529541015625,-48.169471010574604,78.35457627022882,-129.38322778741906,3.182446987888447,,,,3,0,2,3
1788945443.5454812,531747254.0,-9.37890625,-1.4140625,1.078125,0.03125,0.068359375,0.015625,26.875,8.875,-34.6875,26.875,8.875,-34.6875,-0.0011332853771991696,-0.6500926088429569,-0.1028358530713279,0.7528632697343551,-48.938993251005904,78.26388075150432,139.53757210796755,0.53558349609375,0.38616943359375,0.53253173828125,-0.529541015625,-48.169471010574604,78.35457627022882,-129.38322778741906,3.194259404446624,,,,3,0,2,3
1788945443.5467544,531752336.0,-9.41796875,-1.375,1.078125,0.021484375,0.05859375,0.021484375,26.875,8.875,-34.6875,26.875,8.875,-34.6875,-0.0011744860690530387,-0.6503477809269727,-0.10266911973880749,0.7526655540662759,-49.00161139644646,78.30200678182416,139.46441110399755,0.535400390625,0.386474609375,0.5325927734375,-0.5294189453125,-48.24950891516348,78.38276457891624,-129.48088944606496,3.2429403837801476,,,,3,0,2,3
1788945443.5467544,531755713.0,-9.37890625,-1.375,1.0,0.021484375,0.05859375,0.021484375,26.875,8.875,-34.6875,26.875,8.875,-34.6875,-0.0011922201397649174,-0.650519349746245,-0.1025786366449626,0.7525295858110307,-49.054223407414774,78.32599278885472,139.40567575848124,0.535400390625,0.386474609375,0.5325927734375,-0.5294189453125,-48.24950891516348,78.38276457891624,-129.48088944606496,3.252515485668361,,,,3,0,2,3
1788945443.5467544,531759496.0,-9.45703125,-1.375,1.0390625,0.01953125,0.05078125,0.0234375,27.5,9.0,-28.1875,27.5,9.0,-28.1875,-0.0012177107393925378,-0.6506809421522994,-0.1025893386397241,0.7523883679974159,-49.13661791572093,78.34432365722046,139.3260986830926,0.535400390625,0.386474609375,0.5325927734375,-0.5294189453125,-48.24950891516348,78.38276457891624,-129.48088944606496,3.25084115153638,,,,3,0,2,3
1788945443.5601695,531763402.0,-9.45703125,-1.4140625,1.078125,0.009765625,0.0390625,0.0234375,27.5,9.0,-28.1875,27.5,9.0,-28.1875,-0.0012480909491982186,-0.6508223647215744,-0.10263753736924468,0.752259415208595,-49.22106465793436,78.35888485063845,139.24795968513035,0.5352783203125,0.38671875,0.53265380859375,-0.52935791015625,-48.32578172333919,78.42455381874166,-129.57214029918447,3.1087266176233443,,,,3,0,2,3
1788945443.563995,531766785.0,-9.49609375,-1.4140625,1.0390625,0.00390625,0.025390625,0.0234375,23.4375,7.8125,-27.9375,23.4375,7.8125,-27.9375,-0.0012910178479493867,-0.6509467967885194,-0.10262152262249966,0.7521538566798165,-49.270469661469086,78.37552327211318,139.2006271120264,0.5352783203125,0.38671875,0.53265380859375,-0.52935791015625,-48.32578172333919,78.42455381874166,-129.57214029918447,3.1101071960279065,,,,3,0,3,3
1788945443.563995,531771138.0,-9.45703125,-1.4140625,1.0390625,0.00390625,0.025390625,0.0234375,23.4375,7.8125,-27.9375,23.4375,7.8125,-27.9375,-0.0013441962134195097,-0.6511063629695188,-0.10260445321636318,0.7520179674830358,-49.33575210727822,78.39656945031896,139.13813512727177,0.5352783203125,0.38671875,0.53265380859375,-0.52935791015625,-48.32578172333919,78.42455381874166,-129.57214029918447,3.111665175640729,,,,3,0,3,3
1788945443.5693715,531775044.0,-9.45703125,-1.4140625,1.0,0.001953125,0.01171875,0.017578125,23.4375,7.8125,-27.9375,23.4375,7.8125,-27.9375,-0.0013851270233440698,-0.6512286425320523,-0.10259959114189725,0.7519126681114671,-49.388887514959734,78.41229022095304,139.0878271186865,0.53521728515625,0.38690185546875,0.53265380859375,-0.52923583984375,-48.33327990668286,78.4343739064312,-129.5862893662689,3.2075231428731596,,,,3,0,3,3
1788945443.5767784,531778827.0,-9.45703125,-1.453125,1.078125,0.00390625,0.001953125,0.015625,24.0625,9.6875,-27.6875,24.0625,9.6875,-27.6875,-0.0014064041726379929,-0.6512697452348536,-0.10273096402224909,0.7518590891916461,-49.453220577782005,78.411365564354,139.03596767221043,0.53521728515625,0.38690185546875,0.53265380859375,-0.52923583984375,-48.33327990668286,78.4343739064312,-129.5862893662689,3.1925598980385144,,,,3,0,3,3
1788945443.5806022,531782733.0,-9.41796875,-1.453125,1.0390625,0.009765625,-0.00390625,0.017578125,24.0625,9.6875,-27.6875,24.0625,9.6875,-27.6875,-0.001423872359934038,-0.6513095649559488,-0.10284953566825855,0.7518083507099524,-49.51315005749521,78.41071283953272,138.9871533368908,0.5352783203125,0.386962890625,0.5325927734375,-0.52923583984375,-48.29196908974486,78.45275919127977,-129.5490750836135,3.0694202724945745,,,,3,0,3,3
1788945443.5732028,531787493.0,-9.37890625,-1.4140625,1.078125,0.0078125,-0.017578125,0.017578125,23.875,6.375,-27.6875,23.875,6.375,-27.6875,-0.0014663997143157716,-0.6513770550423746,-0.10260649185159172,0.7517830070346831,-49.45058304108747,78.43255049801202,139.0331801986948,0.5352783203125,0.386962890625,0.5325927734375,-0.52923583984375,-48.29196908974486,78.45275919127977,-129.5490750836135,3.0974399051871804,,,,3,0,3,3
1788945443.5753853,531790493.0,-9.37890625,-1.375,1.0390625,0.0078125,-0.017578125,0.017578125,23.875,6.375,-27.6875,23.875,6.375,-27.6875,-0.0014997080018243282,-0.6514240711007654,-0.10246086855241399,0.7517620640082201,-49.41461367827354,78.44679003246188,139.0598703899054,0.5352783203125,0.386962890625,0.5325927734375,-0.52923583984375,-48.29196908974486,78.45275919127977,-129.5490750836135,3.1141881056281386,,,,3,0,3,3
1788945443.5841155,531795175.0,-9.33984375,-1.375,1.15625,0.015625,-0.029296875,0.021484375,23.875,6.375,-27.6875,23.875,6.375,-27.6875,-0.0015511271327814013,-0.6514378992408071,-0.10217771793065146,0.7517885150731065,-49.30638698906893,78.46537486093862,139.14903391301428,0.53533935546875,0.386962890625,0.532470703125,-0.52923583984375,-48.20284031066432,78.43397362076843,-129.46269722820918,3.2701002009067652,,,,3,0,3,3
1788945443.5957532,531798358.0,-9.33984375,-1.4140625,1.15625,0.005859375,-0.0390625,0.029296875,24.375,8.1875,-28.125,24.375,8.1875,-28.125,-0.0016052455076417517,-0.6514515126006976,-0.10223190512567973,0.7517692381918119,-49.32021275472522,78.46726219139822,139.14403861652875,0.53533935546875,0.386962890625,0.532470703125,-0.52923583984375,-48.20284031066432,78.43397362076843,-129.46269722820918,3.2636587306207656,,,,3,0,3,3
1788945443.5973349,531802941.0,-9.37890625,-1.375,1.15625,0.00390625,-0.041015625,0.0234375,24.375,8.1875,-28.125,24.375,8.1875,-28.125,-0.0017172519379474304,-0.651479183488085,-0.10227964832179386,0.7517385170833338,-49.325087894038525,78.47432604493785,139.15215635387068,0.53546142578125,0.386962890625,0.5323486328125,-0.529296875,-48.117150630323714,78.44727126986037,-129.38128118655456,3.113443500758347,,,,3,0,3,3
1788945443.5933998,531806971.0,-9.3359375,-1.4140625,1.19140625,0.00390625,-0.041015625,0.0234375,24.375,8.1875,-28.125,24.375,8.1875,-28.125,-0.0017862706626642563,-0.6514725504971104,-0.10238827921086756,0.7517293166201163,-49.34436560685853,78.47218883933289,139.14740219886266,0.53546142578125,0.386962890625,0.5323486328125,-0.529296875,-48.117150630323714,78.44727126986037,-129.38128118655456,3.10024223703922,,,,3,0,3,3
1788945443.5973349,531810477.0,-9.3359375,-1.4140625,1.19140625,-0.00390625,-0.056640625,0.02734375,23.375,8.1875,-28.5625,23.375,8.1875,-28.5625,-0.0018657567596119266,-0.651441583706771,-0.10249474350628757,0.7517414512469752,-49.347341603249035,78.4681547263703,139.15964208453286,0.53546142578125,0.386962890625,0.5323486328125,-0.529296875,-48.117150630323714,78.44727126986037,-129.38128118655456,3.087135044272765,,,,3,0,3,3
1788945443.5973349,531814383.0,-9.33984375,-1.453125,1.15625,-0.001953125,-0.0546875,0.02734375,23.375,8.1875,-28.5625,23.375,8.1875,-28.5625,-0.0019178975577743155,-0.6514211268901463,-0.10260050241189093,0.7517446202101865,-49.36231891979463,78.46370351268635,139.15759325651658,0.53564453125,0.38690185546875,0.5321044921875,-0.52935791015625,-47.935016085018205,78.42327104633907,-129.2019636318266,3.159064833280621,,,,3,0,3,3
1788945443.6051698,531818366.0,-9.3359375,-1.4921875,1.19140625,0.005859375,-0.060546875,0.021484375,23.8125,7.0625,-32.3125,23.8125,7.0625,-32.3125,-0.0019152997079794334,-0.6513772130384567,-0.1023735749684737,0.7518136132775569,-49.256798562202206,78.470138436862,139.24432091544955,0.53564453125,0.38690185546875,0.5321044921875,-0.52935791015625,-47.935016085018205,78.42327104633907,-129.2019636318266,3.1844324942652955,,,,3,0,3,3
1788945443.614024,531822072.0,-9.296875,-1.453125,1.26953125,0.00390625,-0.064453125,0.029296875,23.8125,7.0625,-32.3125,23.8125,7.0625,-32.3125,-0.0019433146583694959,-0.6512924045832116,-0.10215882729263293,0.7519162195793829,-49.12644214762558,78.47330191998229,139.35940418896914,0.535888671875,0.3868408203125,0.53192138671875,-0.5294189453125,-47.784104684358496,78.43646072322547,-129.0486440078365,3.0222172251970867,,,,3,0,3,3
1788945443.614024,531826425.0,-9.33984375,-1.52734375,1.30859375,0.00390625,-0.064453125,0.029296875,23.8125,7.0625,-32.3125,23.8125,7.0625,-32.3125,-0.0019384284941959407,-0.6511693527892269,-0.10193107467681195,0.7520537032009498,-48.979095065372604,78.47104260725315,139.48777006735133,0.535888671875,0.3868408203125,0.53192138671875,-0.5294189453125,-47.784104684358496,78.43646072322547,-129.0486440078365,3.048783695985676,,,,3,0,3,3
1788945443.623156,531830008.0,-9.26171875,-1.453125,1.26953125,0.005859375,-0.068359375,0.033203125,26.4375,9.125,-33.375,26.4375,9.125,-33.375,-0.001958812825884711,-0.6510263417558803,-0.10204631670424524,0.7521618274276924,-48.940647920216186,78.45107456055354,139.537442461734,0.535888671875,0.3868408203125,0.53192138671875,-0.5294189453125,-47.784104684358496,78.43646072322547,-129.0486440078365,3.034284104169411,,,,3,0,3,3
1788945443.6304672,531834114.0,-9.2578125,-1.453125,1.34765625,0.013671875,-0.0703125,0.03515625,26.4375,9.125,-33.375,26.4375,9.125,-33.375,-0.001990577093319091,-0.6508145748222578,-0.10207046616315889,0.7523417087593874,-48.830118635383904,78.42881663774588,139.65270504410063,0.5361328125,0.38677978515625,0.5316162109375,-0.52947998046875,-47.553879410523834,78.41221480774237,-128.82119170944824,3.1095291039277293,,,,3,0,3,3
1788945443.634081,531837297.0,-9.2578125,-1.453125,1.34765625,0.013671875,-0.0703125,0.033203125,27.25,7.9375,-34.375,27.25,7.9375,-34.375,-0.002013012329323264,-0.650704741179495,-0.10189365691592907,0.752460610442957,-48.70227853147818,78.42691527421198,139.76795220485184,0.5361328125,0.38677978515625,0.5316162109375,-0.52947998046875,-47.553879410523834,78.41221480774237,-128.82119170944824,3.1294262082394346,,,,3,0,2,3
1788945443.634081,531841850.0,-9.296875,-1.375,1.30859375,0.013671875,-0.0703125,0.033203125,27.25,7.9375,-34.375,27.25,7.9375,-34.375,-0.002085475896886441,-0.6505814932485291,-0.10161024860093551,0.7526052941695625,-48.516102588738306,78.43158964154283,139.93686613169774,0.5361328125,0.38677978515625,0.5316162109375,-0.52947998046875,-47.553879410523834,78.41221480774237,-128.82119170944824,3.161353608497103,,,,3,0,2,3
1788945443.634081,531846033.0,-9.3359375,-1.4140625,1.34765625,0.015625,-0.0703125,0.0390625,27.25,7.9375,-34.375,27.25,7.9375,-34.375,-0.002142056879686149,-0.65045076131203,-0.1013523333450452,0.7527528965247757,-48.33922191937516,78.43319844854508,140.0972928612345,0.536376953125,0.38671875,0.53131103515625,-0.529541015625,-47.32423656678081,78.38792975253112,-128.59419266421455,3.2644181052008223,,,,3,0,2,3
1788945443.6462264,531850316.0,-9.3359375,-1.4140625,1.421875,0.017578125,-0.06640625,0.0390625,26.9375,6.5,-34.9375,26.9375,6.5,-34.9375,-0.002188218854107115,-0.6503316874377282,-0.1010799246517958,0.752892261113787,-48.165647700322076,78.4361034771963,140.25236927309146,0.536376953125,0.38671875,0.53131103515625,-0.529541015625,-47.32423656678081,78.38792975253112,-128.59419266421455,3.294463004668654,,,,3,0,2,3
1788945443.6428137,531853822.0,-9.33984375,-1.4140625,1.3828125,0.015625,-0.0625,0.03515625,26.9375,6.5,-34.9375,26.9375,6.5,-34.9375,-0.002221431931659635,-0.6502466629109729,-0.10085837933840046,0.7529953053841358,-48.031659201472316,78.43945086432768,140.37095316641867,0.53662109375,0.38665771484375,0.53106689453125,-0.5296630859375,-47.14729139637327,78.39566478679008,-128.4221850962377,3.1324685156858227,,,,3,0,2,3
1788945443.6472409,531861758.0,-9.375,-1.375,1.421875,0.009765625,-0.056640625,0.0390625,27.625,10.0625,-27.4375,27.625,10.0625,-27.4375,-0.0023354136067778803,-0.6499940386823536,-0.10110920452450638,0.753179410420326,-47.96496081584334,78.40606164435567,140.46769223244445,0.53662109375,0.38665771484375,0.53106689453125,-0.5296630859375,-47.14729139637327,78.39566478679008,-128.4221850962377,3.1012599185170724,,,,3,0,3,3
1788945443.6615055,531866841.0,-9.37890625,-1.3359375,1.4609375,0.005859375,-0.05859375,0.03125,27.625,10.0625,-27.4375,27.625,10.0625,-27.4375,-0.0024168104257192196,-0.649811125753358,-0.10128051271276388,0.7533139568726704,-47.913493841534574,78.38231340427721,140.539975115198,0.536865234375,0.38665771484375,0.53076171875,-0.5296630859375,-46.91304292059698,78.37620747817182,-128.1902555446212,3.186709819724952,,,,3,0,3,3
1788945443.6564925,531869071.0,-9.4140625,-1.3359375,1.421875,0.00390625,-0.052734375,0.033203125,27.625,10.0625,-27.4375,27.625,10.0625,-27.4375,-0.0024565144617421,-0.6497441037393021,-0.10136045489096696,0.7533608852183703,-47.898569769297204,78.37333776016608,140.56473817044122,0.536865234375,0.38665771484375,0.53076171875,-0.5296630859375,-46.91304292059698,78.37620747817182,-128.1902555446212,3.177193858506367,,,,3,0,3,3
1788945443.6634586,531873554.0,-9.4140625,-1.3359375,1.421875,-0.00390625,-0.041015625,0.03125,27.625,10.0625,-27.4375,27.625,10.0625,-27.4375,-0.002542172230106491,-0.6496289981776309,-0.10153737444802012,0.7534360382124567,-47.88325060493745,78.35699486606957,140.60162568301243,0.53704833984375,0.3865966796875,0.53057861328125,-0.52972412109375,-46.77291578235728,78.37058789057166,-128.05044064541173,3.105670474147816,,,,3,0,3,3
1788945443.6750116,531877336.0,-9.45703125,-1.296875,1.421875,0.001953125,-0.037109375,0.02734375,23.375,8.6875,-28.1875,23.375,8.6875,-28.1875,-0.0026731921370491156,-0.6495090481830073,-0.1016363129849509,0.7535256533489936,-47.82569921032125,78.34643779980806,140.6780384867403,0.53704833984375,0.3865966796875,0.53057861328125,-0.52972412109375,-46.77291578235728,78.37058789057166,-128.05044064541173,3.0930564280967947,,,,3,0,3,3
1788945443.6750116,531881413.0,-9.4140625,-1.296875,1.5,0.001953125,-0.037109375,0.02734375,23.375,8.6875,-28.1875,23.375,8.6875,-28.1875,-0.002789262654848131,-0.6493559188792348,-0.10170320348128976,0.7536481732426545,-47.74328287728947,78.33291859839474,140.77550087342166,0.53704833984375,0.3865966796875,0.53057861328125,-0.52972412109375,-46.77291578235728,78.37058789057166,-128.05044064541173,3.0844349798611277,,,,3,0,3,3
1788945443.6779797,531885019.0,-9.4140625,-1.26171875,1.5,0.001953125,-0.025390625,0.01171875,23.375,8.6875,-28.1875,23.375,8.6875,-28.1875,-0.002884973391050686,-0.6492346075434913,-0.101766605897344,0.7537437623095242,-47.68104662590657,78.32190267015669,140.8508168737498,0.5372314453125,0.3865966796875,0.5303955078125,-0.52972412109375,-46.62713662946401,78.36989542418308,-127.90470378404268,3.057135461270859,,,,3,0,3,3
1788945443.6804404,531889179.0,-9.4140625,-1.22265625,1.5,-0.0078125,-0.013671875,0.01171875,24.0,7.6875,-28.5625,24.0,7.6875,-28.5625,-0.003000045875422077,-0.6491457664007968,-0.10165146598031771,0.7538353621001868,-47.565032408995684,78.3240899761322,140.96680889935797,0.5372314453125,0.3865966796875,0.5303955078125,-0.52972412109375,-46.62713662946401,78.36989542418308,-127.90470378404268,3.0697312387307916,,,,3,0,3,3
1788945443.6874065,531892785.0,-9.453125,-1.26171875,1.5,-0.0078125,-0.009765625,0.005859375,24.0,7.6875,-28.5625,24.0,7.6875,-28.5625,-0.0030853428767766136,-0.6490679679347917,-0.10156534622462639,0.7539136118326851,-47.472677545049095,78.3243997184385,141.05909420077174,0.53729248046875,0.38653564453125,0.53033447265625,-0.52972412109375,-46.57189204213974,78.35129240386696,-127.84485219809505,3.1769904723905973,,,,3,0,3,3
1788945443.6834714,531896914.0,-9.375,-1.26171875,1.5390625,-0.0078125,-0.009765625,0.005859375,24.0,7.6875,-28.5625,24.0,7.6875,-28.5625,-0.0031678045720505894,-0.6489683038268836,-0.10148415806908559,0.7540099941666952,-47.37178579248161,78.32186830700269,141.16010928054206,0.53729248046875,0.38653564453125,0.53033447265625,-0.52972412109375,-46.57189204213974,78.35129240386696,-127.84485219809505,3.1857555233747927,,,,3,0,3,3
1788945443.6966429,531900521.0,-9.3359375,-1.22265625,1.5,-0.017578125,-0.00390625,0.001953125,24.125,10.25,-27.25,24.125,10.25,-27.25,-0.0032328989006997376,-0.648915871540174,-0.10167271220728996,0.7540294421442494,-47.398506372327134,78.31072158047455,141.1541914553654,0.53729248046875,0.38653564453125,0.53033447265625,-0.52972412109375,-46.57189204213974,78.35129240386696,-127.84485219809505,3.164226604056736,,,,3,0,3,3
1788945443.697644,531904427.0,-9.37890625,-1.18359375,1.5,-0.0234375,0.001953125,-0.01171875,24.125,10.25,-27.25,24.125,10.25,-27.25,-0.0033034636224479556,-0.6488658258396999,-0.10189923507100851,0.7540416255601563,-47.439022783668335,78.29833718706726,141.13803625007975,0.537353515625,0.386474609375,0.5303955078125,-0.52972412109375,-46.59535367733886,78.36994201086002,-127.85955987625373,2.9693998521606284,,,,3,0,3,3
1788945443.7035685,531908210.0,-9.3359375,-1.26171875,1.5,-0.029296875,0.00390625,-0.01953125,24.0625,6.25,-28.6875,24.0625,6.25,-28.6875,-0.0033422405072548425,-0.6488380556592512,-0.10180744837953382,0.7540777482535622,-47.38160382097523,78.30180820964085,141.19109864441612,0.537353515625,0.386474609375,0.5303955078125,-0.52972412109375,-46.59535367733886,78.36994201086002,-127.85955987625373,2.9801894514957525,,,,3,0,3,3
1788945443.7035685,531912116.0,-9.3359375,-1.26171875,1.4609375,-0.029296875,0.015625,-0.029296875,24.0625,6.25,-28.6875,24.0625,6.25,-28.6875,-0.003367053149300652,-0.6488327613170466,-0.10171827722505808,0.7540942267867805,-47.339935783107286,78.30685360178974,141.22747111719244,0.53729248046875,0.38641357421875,0.530517578125,-0.5296630859375,-46.6639265280174,78.35704452877717,-127.9164966905843,3.109457154136845,,,,3,0,3,3
1788945443.7035685,531916269.0,-9.3359375,-1.26171875,1.4609375,-0.029296875,0.015625,-0.029296875,24.0625,6.25,-28.6875,24.0625,6.25,-28.6875,-0.003393272458489431,-0.6488269931829217,-0.10162353130755279,0.754111846150035,-47.29559351376657,78.31218530017867,141.26617526186058,0.53729248046875,0.38641357421875,0.530517578125,-0.5296630859375,-46.6639265280174,78.35704452877717,-127.9164966905843,3.1202608826837763,,,,3,0,3,3
1788945443.7139912,531920252.0,-9.3359375,-1.296875,1.4609375,-0.037109375,0.01953125,-0.025390625,23.4375,7.5625,-32.3125,23.4375,7.5625,-32.3125,-0.0034368737846584728,-0.648801933721714,-0.10156580161076409,0.7541409859175644,-47.250804864428076,78.31458441539714,141.30979153493814,0.53729248046875,0.38641357421875,0.530517578125,-0.5296630859375,-46.6639265280174,78.35704452877717,-127.9164966905843,3.126767557845198,,,,3,0,3,3
1788945443.7139912,531923958.0,-9.30078125,-1.3359375,1.421875,-0.04296875,0.025390625,-0.03125,23.4375,7.5625,-32.3125,23.4375,7.5625,-32.3125,-0.003464145690793483,-0.6487888952922564,-0.10152196710369381,0.7541579802902594,-47.22126085760458,78.31674078590542,141.3379662077308,0.5372314453125,0.38629150390625,0.53070068359375,-0.5296630859375,-46.77770715196256,78.35780181864453,-128.0168415466753,3.083939607902656,,,,3,0,3,3
1788945443.7139912,531927741.0,-9.33984375,-1.4140625,1.3828125,-0.03125,0.029296875,-0.03125,28.25,8.4375,-34.1875,28.25,8.4375,-34.1875,-0.0034519539794112103,-0.6487851518322377,-0.10145556480791672,0.7541701924269156,-47.197915963006125,78.3187967806682,141.3548758934909,0.5372314453125,0.38629150390625,0.53070068359375,-0.5296630859375,-46.77770715196256,78.35780181864453,-128.0168415466753,3.0918641271448486,,,,3,0,2,3
1788945443.7139912,531931894.0,-9.33984375,-1.4140625,1.3828125,-0.03125,0.029296875,-0.03125,28.25,8.4375,-34.1875,28.25,8.4375,-34.1875,-0.003438054860233088,-0.6487806966716996,-0.10138306725712,0.7541838377202872,-47.17238362218866,78.32096663798663,141.37333490149288,0.5372314453125,0.38629150390625,0.53070068359375,-0.5296630859375,-46.77770715196256,78.35780181864453,-128.0168415466753,3.100520281445799,,,,3,0,2,3
1788945443.7279913,531935400.0,-9.30078125,-1.453125,1.34765625,-0.033203125,0.03125,-0.03125,28.25,8.4375,-34.1875,28.25,8.4375,-34.1875,-0.0033919809108785893,-0.6487873051054194,-0.10132203426926892,0.7541865635047371,-47.16469397373159,78.32202768739418,141.37226817851524,0.53717041015625,0.38616943359375,0.53094482421875,-0.52960205078125,-46.91818757786008,78.36378146104417,-128.13682400811942,3.0652701704862078,,,,3,0,2,3
1788945443.7323573,531940160.0,-9.33984375,-1.453125,1.30859375,-0.03515625,0.03125,-0.025390625,27.1875,8.3125,-35.0,27.1875,8.3125,-35.0,-0.0033403796445715056,-0.6488559153727704,-0.10119875195344175,0.7541443201089961,-47.16665647623961,78.33261623733358,141.35594102249277,0.53717041015625,0.38616943359375,0.53094482421875,-0.52960205078125,-46.91818757786008,78.36378146104417,-128.13682400811942,3.0801493766661014,,,,3,0,2,3
1788945443.7412114,531943566.0,-9.3359375,-1.453125,1.34765625,-0.01953125,0.03125,-0.033203125,27.1875,8.3125,-35.0,27.1875,8.3125,-35.0,-0.003279272871138434,-0.64887072621419,-0.1011157906203554,0.7541429731283895,-47.15876823423814,78.33479206030611,141.35204585168478,0.53704833984375,0.38604736328125,0.5311279296875,-0.529541015625,-47.028348008340394,78.33275241085956,-128.23092774786423,3.3123090303681044,,,,3,0,2,3
1788945443.7403347,531947349.0,-9.33984375,-1.453125,1.3828125,-0.015625,0.0390625,-0.033203125,26.25,6.9375,-35.0,26.25,6.9375,-35.0,-0.0032210639215467566,-0.6489117234694886,-0.10100638379935556,0.7541226096085759,-47.153601702716514,78.34129180649745,141.34347306655738,0.53704833984375,0.38604736328125,0.5311279296875,-0.529541015625,-47.028348008340394,78.33275241085956,-128.23092774786423,3.324875193350777,,,,3,0,2,3
1788945443.7471056,531952232.0,-9.296875,-1.453125,1.30859375,-0.001953125,0.0390625,-0.02734375,26.25,6.9375,-35.0,26.25,6.9375,-35.0,-0.003129353712216276,-0.6489943197927898,-0.10081932097306194,0.7540769486866501,-47.14914565169568,78.35423081223918,141.32506293640427,0.53692626953125,0.38604736328125,0.53131103515625,-0.529541015625,-47.164798614963075,78.35173851627388,-128.36508758333352,3.2343091899905825,,,,3,0,2,3
1788945443.7451525,531956185.0,-9.33984375,-1.453125,1.26953125,-0.001953125,0.0390625,-0.02734375,26.25,6.9375,-35.0,26.25,6.9375,-35.0,-0.00305605756031493,-0.6490775829437208,-0.10066558825414126,0.754026121015428,-47.15277510128389,78.36669008998057,141.30279783234147,0.53692626953125,0.38604736328125,0.53131103515625,-0.529541015625,-47.164798614963075,78.35173851627388,-128.36508758333352,3.2525147955044895,,,,3,0,2,3
1788945443.7403347,531959768.0,-9.3359375,-1.52734375,1.34765625,-0.001953125,0.03515625,-0.029296875,27.1875,7.5,-28.75,27.1875,7.5,-28.75,-0.0029050077292175265,-0.6490697710465424,-0.10062795961777445,0.7540384651905007,-47.1727945003411,78.35919520725386,141.26742548441058,0.53692626953125,0.38604736328125,0.53131103515625,-0.529541015625,-47.164798614963075,78.35173851627388,-128.36508758333352,3.257939537156163,,,,3,0,3,3
1788945443.7471056,531963474.0,-9.33984375,-1.52734375,1.26953125,0.005859375,0.037109375,-0.025390625,27.1875,7.5,-28.75,27.1875,7.5,-28.75,-0.0027077036718710576,-0.6491714864847127,-0.10056392845233755,0.7539601751885088,-47.2501067505889,78.36251573109456,141.16874527823933,0.5367431640625,0.38604736328125,0.531494140625,-0.529541015625,-47.31041345384163,78.35230305233404,-128.51064992066281,3.2852919191968604,,,,3,0,3,3
1788945443.759422,531966880.0,-9.37890625,-1.52734375,1.26953125,0.0078125,0.02734375,-0.009765625,27.1875,7.5,-28.75,27.1875,7.5,-28.75,-0.0025558224631050805,-0.6492607368138217,-0.10047696405606923,0.753895445733416,-47.30131995142102,78.36806649276778,141.0979845279008,0.5367431640625,0.38604736328125,0.531494140625,-0.529541015625,-47.31041345384163,78.35230305233404,-128.51064992066281,3.296231187430345,,,,3,0,3,3
1788945443.7633572,531970833.0,-9.296875,-1.56640625,1.23046875,0.0078125,0.02734375,-0.009765625,24.1875,7.375,-27.5625,24.1875,7.375,-27.5625,-0.002402776510680966,-0.6493417592034689,-0.10059609369877895,0.7538102760987877,-47.42475327331834,78.36277461915155,140.9718209409615,0.5367431640625,0.38604736328125,0.531494140625,-0.529541015625,-47.31041345384163,78.35230305233404,-128.51064992066281,3.283093276122127,,,,3,0,3,3
1788945443.759422,531976216.0,-9.33984375,-1.4921875,1.30859375,0.015625,0.029296875,-0.015625,24.1875,7.375,-27.5625,24.1875,7.375,-27.5625,-0.00210949080527379,-0.6493463570274834,-0.10071435865547934,0.7537914012671503,-47.54371863752502,78.34118183096635,140.83872357761305,0.53656005859375,0.3861083984375,0.53155517578125,-0.52960205078125,-47.39662200076158,78.34737537239566,-128.61060707416166,3.310215311575795,,,,3,0,3,3
1788945443.776633,531978822.0,-9.33984375,-1.52734375,1.26953125,0.025390625,0.03125,-0.0078125,24.1875,7.375,-27.5625,24.1875,7.375,-27.5625,-0.0019796670628201975,-0.6493969190405406,-0.10076759209473926,0.7537410794446607,-47.621299122765606,78.33690967323147,140.7549200671129,0.53656005859375,0.3861083984375,0.53155517578125,-0.52960205078125,-47.39662200076158,78.34737537239566,-128.61060707416166,3.3049680997840984,,,,3,0,3,3
1788945443.7799704,531982629.0,-9.37890625,-1.4921875,1.30859375,0.017578125,0.029296875,-0.005859375,24.1875,7.375,-27.5625,24.1875,7.375,-27.5625,-0.0017701602767693787,-0.6494085320447893,-0.10080746159471381,0.753726263790016,-47.69378903467541,78.32449708358044,140.66866899618057,0.53643798828125,0.38623046875,0.53155517578125,-0.52960205078125,-47.42896654930074,78.34724010686566,-128.65650665071874,3.364319976896674,,,,3,0,3,3
1788945443.7780173,531986958.0,-9.37890625,-1.4140625,1.30859375,0.017578125,0.029296875,-0.005859375,24.1875,7.375,-27.5625,24.1875,7.375,-27.5625,-0.0017841035760126165,-0.6494596163803996,-0.10058438141919816,0.7537120178688752,-47.63455819502551,78.3416437345947,140.7106922822048,0.53643798828125,0.38623046875,0.53155517578125,-0.52960205078125,-47.42896654930074,78.34724010686566,-128.65650665071874,3.3893665437374842,,,,3,0,3,3
1788945443.7799704,531991341.0,-9.37890625,-1.453125,1.30859375,0.03125,0.03515625,-0.0078125,23.875,7.875,-27.25,23.875,7.875,-27.25,-0.0016939300231264532,-0.649496179820421,-0.10075821574109856,0.753657498443707,-47.73936157316299,78.33221851942868,140.61279145388403,0.53643798828125,0.38623046875,0.53155517578125,-0.52960205078125,-47.42896654930074,78.34724010686566,-128.65650665071874,3.3703148507311793,,,,3,0,3,3
1788945443.7777135,531994071.0,-9.41796875,-1.4140625,1.30859375,0.03125,0.02734375,-0.00390625,23.875,7.875,-27.25,23.875,7.875,-27.25,-0.0016793439679688772,-0.6495173487480173,-0.10086044206205041,0.7536256130906324,-47.791250185354016,78.32878871410541,140.56808580176207,0.5362548828125,0.3863525390625,0.5316162109375,-0.5296630859375,-47.52247460586808,78.36065372593487,-128.768156665437,3.2983209391080277,,,,3,0,3,3
1788945443.7878697,531998254.0,-9.41796875,-1.3359375,1.30859375,0.02734375,0.02734375,-0.00390625,23.8125,8.8125,-27.4375,23.8125,8.8125,-27.4375,-0.001680693059889915,-0.6495541405418779,-0.10101871109588435,0.7535726997339187,-47.86768792732666,78.32525410842258,140.50471021580822,0.5362548828125,0.3863525390625,0.5316162109375,-0.5296630859375,-47.52247460586808,78.36065372593487,-128.768156665437,3.279872031396119,,,,3,0,3,3
1788945443.7967818,532002736.0,-9.4140625,-1.3359375,1.23046875,0.02734375,0.033203125,-0.013671875,23.8125,8.8125,-27.4375,23.8125,8.8125,-27.4375,-0.0016581226848746769,-0.6496409620602582,-0.10117872408242934,0.7534764341607741,-47.97627282764827,78.32574880372782,140.40734640985306,0.5361328125,0.38653564453125,0.5316162109375,-0.52972412109375,-47.574701232975194,78.3923227810377,-128.8428209361589,3.0890181942284967,,,,3,0,3,3
1788945443.7967818,532006313.0,-9.37890625,-1.3359375,1.26953125,0.02734375,0.033203125,-0.013671875,23.8125,8.8125,-27.4375,23.8125,8.8125,-27.4375,-0.0016434323063068941,-0.6496920493247806,-0.10131935575455654,0.7534135174815375,-48.057505603931816,78.32368837272756,140.3364146581771,0.5361328125,0.38653564453125,0.5316162109375,-0.52972412109375,-47.574701232975194,78.3923227810377,-128.8428209361589,3.0718799930794667,,,,3,0,3,3
1788945443.7993672,532010096.0,-9.41796875,-1.296875,1.23046875,0.025390625,0.02734375,-0.01171875,23.1875,9.75,-27.4375,23.1875,9.75,-27.4375,-0.0016276244145585733,-0.6497439723458139,-0.10146729608148944,0.7533488627886543,-48.14209307891838,78.32128201660228,140.26263655033011,0.5361328125,0.38653564453125,0.5316162109375,-0.52972412109375,-47.574701232975194,78.3923227810377,-128.8428209361589,3.0538790287572835,,,,3,0,3,3
1788945443.8082213,532014579.0,-9.4140625,-1.3359375,1.19140625,0.02734375,0.02734375,-0.01953125,23.1875,9.75,-27.4375,23.1875,9.75,-27.4375,-0.0015803513491168195,-0.6498113566603678,-0.10164739255724013,0.7532665602767321,-48.25405345853219,78.3171902516364,140.16155478086515,0.53594970703125,0.3865966796875,0.5316162109375,-0.52978515625,-47.62154935440096,78.368760460186,-128.90595345448924,3.2040237458743976,,,,3,0,3,3
1788945443.8138962,532018161.0,-9.4140625,-1.3359375,1.19140625,0.017578125,0.025390625,-0.021484375,22.75,8.4375,-32.625,22.75,8.4375,-32.625,-0.0016085317990403207,-0.649927249733804,-0.10163281016982156,0.7531684768867388,-48.301596463181696,78.33213515685841,140.11500992066522,0.53594970703125,0.3865966796875,0.5316162109375,-0.52978515625,-47.62154935440096,78.368760460186,-128.90595345448924,3.205186510177562,,,,3,0,3,3
1788945443.8079717,532021868.0,-9.41796875,-1.296875,1.19140625,0.01953125,0.01953125,-0.01953125,22.75,8.4375,-32.625,22.75,8.4375,-32.625,-0.001656545832851933,-0.6500342106527969,-0.10158643741016503,0.7530823172610079,-48.32818023654547,78.34878040675945,140.08843513875055,0.5357666015625,0.38671875,0.53167724609375,-0.52984619140625,-47.71539319436254,78.38220070286364,-129.01789041230023,3.146296201669721,,,,3,0,3,3
1788945443.8099465,532026697.0,-9.41796875,-1.375,1.15625,0.01953125,0.01953125,-0.01953125,22.75,8.4375,-32.625,22.75,8.4375,-32.625,-0.0016500590806781137,-0.6501854744396353,-0.10160381106945977,0.7529493951846287,-48.41448457364368,78.36403090532562,140.00290550160528,0.5357666015625,0.38671875,0.53167724609375,-0.52984619140625,-47.71539319436254,78.38220070286364,-129.01789041230023,3.1440814738681797,,,,3,0,3,3
1788945443.8138962,532029604.0,-9.37890625,-1.453125,1.15625,0.025390625,0.01171875,-0.025390625,27.0625,9.5625,-33.25,27.0625,9.5625,-33.25,-0.0015958707978916344,-0.6502403357052177,-0.10169525194863568,0.7528897892450567,-48.48962283878975,78.36243437999353,139.9308215696504,0.5357666015625,0.38671875,0.53167724609375,-0.52984619140625,-47.71539319436254,78.38220070286364,-129.01789041230023,3.13376169121166,,,,3,0,3,3
1788945443.8306344,532033510.0,-9.37890625,-1.4140625,1.1171875,0.02734375,0.00390625,-0.025390625,27.0625,9.5625,-33.25,27.0625,9.5625,-33.25,-0.0015401090650411118,-0.6503181180688827,-0.10178441719092308,0.7528106706154734,-48.57622904516961,78.36332963284389,139.8469366627828,0.53564453125,0.38671875,0.53167724609375,-0.52996826171875,-47.758264899244885,78.37213602826307,-129.0747627399724,3.1254213350485562,,,,3,0,3,3
1788945443.8354952,532037293.0,-9.33984375,-1.453125,1.1171875,0.037109375,0.0,-0.0234375,26.6875,8.5,-34.0625,26.6875,8.5,-34.0625,-0.0014507931640567293,-0.6504200780703433,-0.1017007507744061,0.7527340662771186,-48.620684937880256,78.3734004916525,139.7882782022426,0.53564453125,0.38671875,0.53167724609375,-0.52996826171875,-47.758264899244885,78.37213602826307,-129.0747627399724,3.1359191326042466,,,,3,0,3,3
1788945443.8354952,532041646.0,-9.33984375,-1.4921875,1.15625,0.037109375,0.0,-0.0234375,26.6875,8.5,-34.0625,26.6875,8.5,-34.0625,-0.001307629524956383,-0.6505357029870674,-0.10161453212368418,0.7526460496843336,-48.684617666530684,78.38199192570637,139.70554845996455,0.53564453125,0.38671875,0.53167724609375,-0.52996826171875,-47.758264899244885,78.37213602826307,-129.0747627399724,3.147272609811113,,,,3,0,3,3
1788945443.8401465,532045552.0,-9.33984375,-1.453125,1.078125,0.041015625,-0.01171875,-0.0234375,26.6875,8.5,-34.0625,26.6875,8.5,-34.0625,-0.0012146830775567876,-0.6506240314393945,-0.10153844748725965,0.7525801206120502,-48.72580527169596,78.38998810329122,139.6504973558796,0.5355224609375,0.38677978515625,0.5316162109375,-0.53009033203125,-47.76880235589863,78.36189160045102,-129.10613660849634,3.1852132086239298,,,,3,0,3,3
1788945443.8466206,532049335.0,-9.30078125,-1.56640625,1.078125,0.037109375,-0.021484375,-0.025390625,27.3125,9.4375,-33.875,27.3125,9.4375,-33.875,-0.0010926821050419254,-0.6506512180778996,-0.1016324956147821,0.7525441078732024,-48.804078425953165,78.38130415450699,139.57000611207118,0.5355224609375,0.38677978515625,0.5316162109375,-0.53009033203125,-47.76880235589863,78.36189160045102,-129.10613660849634,3.17543808215914,,,,3,0,2,3
1788945443.8466206,532053041.0,-9.3359375,-1.60546875,1.1171875,0.041015625,-0.0234375,-0.013671875,27.3125,9.4375,-33.875,27.3125,9.4375,-33.875,-0.0009715711417640093,-0.6506643844385298,-0.10172097553722238,0.7525209352626021,-48.87265528958136,78.37141247734942,139.498838130003,0.535400390625,0.38677978515625,0.531494140625,-0.53033447265625,-47.75709989307193,78.3415603521808,-129.1224597130111,3.157908527282382,,,,3,0,2,3
1788945443.8466206,532057500.0,-9.33984375,-1.64453125,1.1171875,0.048828125,-0.044921875,-0.001953125,27.375,10.125,-26.8125,27.375,10.125,-26.8125,-0.0008592904353613925,-0.6506095819151085,-0.10184044288130494,0.7525522956804631,-48.91461240489148,78.35314618942247,139.4576041586894,0.535400390625,0.38677978515625,0.531494140625,-0.53033447265625,-47.75709989307193,78.3415603521808,-129.1224597130111,3.1449116845123504,,,,3,0,3,3
1788945443.8466206,532060877.0,-9.296875,-1.64453125,1.15625,0.048828125,-0.044921875,-0.001953125,27.375,10.125,-26.8125,27.375,10.125,-26.8125,-0.0007724992472238091,-0.6505612072915191,-0.10193482908607404,0.7525814304322868,-48.944556665134954,78.33827444333996,139.42839125286747,0.535400390625,0.38677978515625,0.531494140625,-0.53033447265625,-47.75709989307193,78.3415603521808,-129.1224597130111,3.1346659190372215,,,,3,0,3,3
1788945443.8466206,532065760.0,-9.296875,-1.68359375,1.1171875,0.068359375,-0.04296875,0.0,27.375,10.125,-26.8125,27.375,10.125,-26.8125,-0.0006153537554669621,-0.6505024482413625,-0.10202725922634165,0.752619840654304,-48.98530422518892,78.31833781217772,139.3825076039215,0.535400390625,0.38677978515625,0.53125,-0.530517578125,-47.63606473752346,78.30764639032277,-129.02499128946806,3.2401272963566905,,,,3,0,3,3
1788945443.864339,532069543.0,-9.26171875,-1.64453125,1.15625,0.07421875,-0.048828125,0.01171875,24.0,10.625,-27.875,24.0,10.625,-27.875,-0.0005253375090195732,-0.650441278322567,-0.10208537312243575,0.7526648949360264,-48.99608633028245,78.30369642771977,139.36922966999464,0.535400390625,0.38677978515625,0.53125,-0.530517578125,-47.63606473752346,78.30764639032277,-129.02499128946806,3.23432616073091,,,,3,0,3,3
1788945443.864339,532073249.0,-9.26171875,-1.64453125,1.15625,0.0859375,-0.0546875,0.015625,24.0,10.625,-27.875,24.0,10.625,-27.875,-0.00042980392589494945,-0.650374155981993,-0.10212114057374663,0.7527181047026918,-48.997010341415795,78.28920550168094,139.36353312058293,0.535400390625,0.38690185546875,0.53094482421875,-0.53082275390625,-47.51518232816334,78.31864507470536,-128.94772818853812,2.9963107968661897,,,,3,0,3,3
1788945443.862386,532076802.0,-9.2578125,-1.60546875,1.15625,0.0859375,-0.0546875,0.015625,24.0,10.625,-27.875,24.0,10.625,-27.875,-0.0003425599272514835,-0.6503109372978884,-0.10215525042888347,0.752768139796877,-48.99737368160185,78.27569444196727,139.3589315618177,0.535400390625,0.38690185546875,0.53094482421875,-0.53082275390625,-47.51518232816334,78.31864507470536,-128.94772818853812,2.9928833632940943,,,,3,0,3,3
