pc_unix,dev_us,ax,ay,az,gx,gy,gz,mx_raw,my_raw,mz_raw,mx,my,mz,host_qw,host_qx,host_qy,host_qz,host_roll,host_pitch,host_yaw,chip_qw,chip_qx,chip_qy,chip_qz,chip_roll,chip_pitch,chip_yaw,diff_deg,rel_roll,rel_pitch,rel_yaw,cal_acc,cal_gyr,cal_mag,cal_rv
1788939203.201749,4464737410.0,-9.73046875,1.02734375,1.57421875,-0.013671875,0.03515625,-0.095703125,27.1875,-7.875,-34.75,27.1875,-7.875,-34.75,0.024063002674762274,-0.6438512739658332,0.08478381471975713,0.7600580330977457,32.02148800417743,79.36070901888672,-156.84519891135687,0.51544189453125,0.51995849609375,0.3909912109375,-0.55780029296875,33.03095385216653,79.46158515174373,-66.86305220849023,0.0,,,,3,0,2,3
1788939203.216057,4464740864.0,-9.6171875,0.98828125,1.5390625,-0.013671875,0.03515625,-0.095703125,27.1875,-7.875,-34.75,27.1875,-7.875,-34.75,0.024127449820496867,-0.6438886612247989,0.08482703571940128,0.7600194945673138,32.03300822080295,79.36698511674288,-156.8424215988544,0.51544189453125,0.51995849609375,0.3909912109375,-0.55780029296875,33.03095385216653,79.46158515174373,-66.86305220849023,0.0,,,,3,0,2,3
1788939203.221366,4464745146.0,-9.578125,0.953125,1.5390625,-0.01953125,0.037109375,-0.08984375,24.6875,-7.0,-27.5,24.6875,-7.0,-27.5,0.024236107671875878,-0.6439479068191838,0.08488552110168121,0.7599593098945528,32.0445439571254,79.3774897965986,-156.84445275694407,0.51544189453125,0.51995849609375,0.3909912109375,-0.55780029296875,33.03095385216653,79.46158515174373,-66.86305220849023,0.0,,,,3,0,3,3
1788939203.2268713,4464748753.0,-9.5,0.953125,1.5390625,-0.03125,0.033203125,-0.091796875,24.6875,-7.0,-27.5,24.6875,-7.0,-27.5,0.02431233232980727,-0.6439824960275118,0.08491572314131703,0.7599241904757659,32.045144890269924,79.38425210442193,-156.85248985303238,0.51519775390625,0.519775390625,0.39141845703125,-0.557861328125,32.82554417270671,79.49562806493154,-67.03253091845427,0.0,,,,3,0,3,3
1788939203.2249181,4464752259.0,-9.46484375,0.953125,1.57421875,-0.037109375,0.033203125,-0.08203125,24.6875,-7.0,-27.5,24.6875,-7.0,-27.5,0.02436567505090599,-0.6439881059778404,0.0849362784782018,0.7599154307136161,32.038339974282295,79.3865242738369,-156.86531015459673,0.51519775390625,0.519775390625,0.39141845703125,-0.557861328125,32.82554417270671,79.49562806493154,-67.03253091845427,0.0,,,,3,0,3,3
1788939203.235934,4464756818.0,-9.42578125,0.9140625,1.5390625,-0.05078125,0.03515625,-0.07421875,24.1875,-4.8125,-28.375,24.1875,-4.8125,-28.375,0.024421441064119573,-0.6440624292285462,0.08452243319707989,0.7598967948077033,31.859794437521177,79.4108825600076,-157.01445292150828,0.5150146484375,0.51959228515625,0.391845703125,-0.557861328125,32.64812433720444,79.52471934131052,-67.16475537827942,0.688129082937281,,,,3,0,3,3
1788939203.2398925,4464761125.0,-9.4609375,0.953125,1.5390625,-0.05078125,0.037109375,-0.052734375,24.1875,-4.8125,-28.375,24.1875,-4.8125,-28.375,0.02442449004107934,-0.6441311990655932,0.08416183248823128,0.7598784301641791,31.720796325551003,79.43078005169816,-157.1241253693428,0.5150146484375,0.51959228515625,0.391845703125,-0.557861328125,32.64812433720444,79.52471934131052,-67.16475537827942,0.7010689300328129,,,,3,0,3,3
1788939203.2438507,4464763778.0,-9.42578125,0.9140625,1.5390625,-0.05078125,0.037109375,-0.052734375,24.1875,-5.75,-28.5,24.1875,-5.75,-28.5,0.024435468465530668,-0.6441585099376058,0.08394807533390473,0.7598785709595753,31.63003825818741,79.4411209401798,-157.19825946476152,0.5150146484375,0.51959228515625,0.391845703125,-0.557861328125,32.64812433720444,79.52471934131052,-67.16475537827942,0.7095686653973375,,,,3,0,3,3
1788939203.2399156,4464771637.0,-9.50390625,0.9140625,1.57421875,-0.056640625,0.03515625,-0.04296875,24.1875,-5.75,-28.5,24.1875,-5.75,-28.5,0.024429649090187695,-0.6442027615495259,0.0833473260720536,0.7599073742857966,31.374858086594614,79.46429404612542,-157.40377071371748,0.5150146484375,0.5194091796875,0.39227294921875,-0.5577392578125,32.545834142821924,79.55911654370615,-67.22839111506572,0.6326052707549492,,,,3,0,3,3
1788939203.2438507,4464772290.0,-9.5390625,0.875,1.4609375,-0.0546875,0.046875,-0.0390625,24.1875,-5.75,-28.5,24.1875,-5.75,-28.5,0.02443190090422735,-0.6442247821783,0.08329568804666963,0.7598942956743128,31.358657793307895,79.46882866898397,-157.41590845811191,0.5150146484375,0.5194091796875,0.39227294921875,-0.5577392578125,32.545834142821924,79.55911654370615,-67.22839111506572,0.634776180095628,,,,3,0,3,3
1788939203.2438507,4464775943.0,-9.578125,0.875,1.5390625,-0.0546875,0.046875,-0.0390625,24.1875,-5.75,-28.5,24.1875,-5.75,-28.5,0.02444708513620177,-0.6442947082821031,0.08300214674408177,0.7598666412890467,31.245126634105734,79.48728222516534,-157.50659276391858,0.5150146484375,0.5194091796875,0.39227294921875,-0.5577392578125,32.545834142821924,79.55911654370615,-67.22839111506572,0.6495175428366993,,,,3,0,3,3
1788939203.2563806,4464779650.0,-9.6171875,0.875,1.5390625,-0.0625,0.04296875,-0.029296875,24.1875,-5.75,-28.5,24.1875,-5.75,-28.5,0.024440757830605495,-0.6443625193750926,0.08270352589052112,0.7598419044686369,31.135651794555365,79.5047340821734,-157.59105902938623,0.51495361328125,0.519287109375,0.3927001953125,-0.5576171875,32.46457650521335,79.6000422392108,-67.27846311471261,0.5398285034289617,,,,3,0,3,3
1788939203.261398,4464783909.0,-9.65625,0.875,1.5,-0.072265625,0.041015625,-0.021484375,24.1875,-6.75,-28.875,24.1875,-6.75,-28.875,0.024437405020575054,-0.6444863497746983,0.08271611785860153,0.7597356132473634,31.18827546358111,79.5208628286005,-157.53907637909538,0.51495361328125,0.519287109375,0.3927001953125,-0.5576171875,32.46457650521335,79.6000422392108,-67.27846311471261,0.5348170364019084,,,,3,0,3,3
1788939203.261398,4464787815.0,-9.69921875,0.875,1.4609375,-0.076171875,0.0390625,-0.01171875,24.1875,-6.75,-28.875,24.1875,-6.75,-28.875,0.024398879644592995,-0.644624721730086,0.0826925673430677,0.759622012656762,31.24214999855391,79.5386041305059,-157.48001217857413,0.51507568359375,0.5191650390625,0.39306640625,-0.557373046875,32.461728372349626,79.62657546857585,-67.23845781901103,0.23588459353482089,,,,3,0,3,3
1788939203.261398,4464795675.0,-9.76953125,0.8359375,1.4609375,-0.06640625,0.041015625,-0.005859375,23.9375,-7.125,-28.3125,23.9375,-7.125,-28.3125,0.024342341145350343,-0.644860096401504,0.08276545038362083,0.7594160827368635,31.38305845651712,79.56583892869067,-157.34024757260633,0.51507568359375,0.5191650390625,0.39306640625,-0.557373046875,32.461728372349626,79.62657546857585,-67.23845781901103,0.21875684665504821,,,,3,0,3,3
1788939203.2744396,4464799381.0,-9.76953125,0.8359375,1.5,-0.05859375,0.033203125,-0.0078125,23.9375,-7.125,-28.3125,23.9375,-7.125,-28.3125,0.024340654099621217,-0.6449381500909803,0.08282806764790109,0.7593430228328576,31.441673640274285,79.57441001757404,-157.28654471599475,0.51519775390625,0.51904296875,0.3934326171875,-0.55712890625,32.45905015309781,79.65327106430149,-67.1985181674871,0.0,,,,3,0,3,3
1788939203.2744396,4464803740.0,-9.76953125,0.875,1.4609375,-0.0625,0.025390625,0.00390625,25.8125,-5.4375,-34.6875,25.8125,-5.4375,-34.6875,0.02424680116652397,-0.6450211401736403,0.08251718912636134,0.7593093802008325,31.362510077240188,79.59089131625416,-157.33256769373008,0.51519775390625,0.51904296875,0.3934326171875,-0.55712890625,32.45905015309781,79.65327106430149,-67.1985181674871,0.0,,,,3,0,3,3
1788939203.2744396,4464807146.0,-9.88671875,0.875,1.421875,-0.056640625,0.0234375,-0.001953125,25.8125,-5.4375,-34.6875,25.8125,-5.4375,-34.6875,0.024188969201528337,-0.6450978095271053,0.08228049948365242,0.7592717756620608,31.302390107811163,79.60578094667619,-157.36855252279312,0.51531982421875,0.5189208984375,0.3936767578125,-0.55694580078125,32.44728512610847,79.66017085613524,-67.16557788984382,0.0,,,,3,0,3,3
1788939203.2724864,4464811476.0,-9.8828125,0.9140625,1.3828125,-0.056640625,0.0234375,-0.001953125,25.8125,-5.4375,-34.6875,25.8125,-5.4375,-34.6875,0.02410289346831754,-0.6452087388247738,0.08198860265167338,0.7592118300618252,31.239420529774765,79.62576242624012,-157.40054403934082,0.51531982421875,0.5189208984375,0.3936767578125,-0.55694580078125,32.44728512610847,79.66017085613524,-67.16557788984382,0.10741686897284361,,,,3,0,3,3
1788939203.2918277,4464814882.0,-9.88671875,0.9140625,1.421875,-0.05859375,0.01953125,-0.009765625,28.0,-7.25,-33.5625,28.0,-7.25,-33.5625,0.024061383275892103,-0.64533092666829,0.08189304435321522,0.7591196046782478,31.25571037688546,79.64330717403247,-157.37295028199753,0.51531982421875,0.5189208984375,0.3936767578125,-0.55694580078125,32.44728512610847,79.66017085613524,-67.16557788984382,0.13850332927026085,,,,3,0,3,3
1788939203.2918277,4464819365.0,-9.84375,0.875,1.3828125,-0.048828125,0.017578125,-0.013671875,28.0,-7.25,-33.5625,28.0,-7.25,-33.5625,0.024045899500148793,-0.6454879630970107,0.08175981144385697,0.7590009337588235,31.2585353474879,79.66764456387465,-157.35782534503747,0.51544189453125,0.518798828125,0.3939208984375,-0.5567626953125,32.4355798829163,79.66714184409774,-67.13268324584902,0.3997739068738556,,,,3,0,3,3
1788939203.2918277,4464822948.0,-9.80859375,0.875,1.26953125,-0.048828125,0.0078125,-0.017578125,27.125,-8.375,-35.125,27.125,-8.375,-35.125,0.02402864352025837,-0.6455824638563207,0.08175141798875733,0.7589220067362695,31.296413048630512,79.67989288429061,-157.3177715665559,0.51544189453125,0.518798828125,0.3939208984375,-0.5567626953125,32.4355798829163,79.66714184409774,-67.13268324584902,0.40078769548726306,,,,3,0,2,3
1788939203.2918277,4464831131.0,-9.76953125,0.8359375,1.34375,-0.04296875,-0.001953125,-0.01953125,27.125,-8.375,-35.125,27.125,-8.375,-35.125,0.024058244962141023,-0.6457558951384316,0.08176160029063437,0.758772406892356,31.356333410877724,79.70402326329184,-157.26093312365052,0.5155029296875,0.5186767578125,0.39410400390625,-0.55670166015625,32.38271432566632,79.67916761771556,-67.16663681898781,0.0,,,,3,0,2,3
1788939203.3077135,4464834814.0,-9.6953125,0.796875,1.30859375,-0.037109375,-0.009765625,-0.017578125,26.375,-6.5625,-35.75,26.375,-6.5625,-35.75,0.02406954226218524,-0.6458279368503401,0.08155648997314834,0.7587328067654528,31.284169537346656,79.72011219608856,-157.31717549478378,0.5155029296875,0.5186767578125,0.39410400390625,-0.55670166015625,32.38271432566632,79.67916761771556,-67.16663681898781,0.0,,,,3,0,2,3
1788939203.3077135,4464838520.0,-9.65625,0.8359375,1.26953125,-0.03515625,-0.025390625,-0.0078125,26.375,-6.5625,-35.75,26.375,-6.5625,-35.75,0.02405690593090841,-0.6458867687119372,0.08138460029570356,0.7587015843627799,31.2308453320765,79.73251634379224,-157.35536144932342,0.515625,0.51849365234375,0.3941650390625,-0.55670166015625,32.299076757886986,79.66487873719636,-67.2218653130347,0.4363867999673511,,,,3,0,2,3
1788939203.3077135,4464842503.0,-9.6171875,0.8359375,1.26953125,-0.015625,-0.03515625,-0.001953125,24.625,-7.625,-28.25,24.625,-7.625,-28.25,0.024060637977861545,-0.6458998673358477,0.08149248005523202,0.758678734887225,31.284808533494854,79.73128133164451,-157.31051232141743,0.515625,0.51849365234375,0.3941650390625,-0.55670166015625,32.299076757886986,79.66487873719636,-67.2218653130347,0.4278686388604075,,,,3,0,3,3
1788939203.3077135,4464846256.0,-9.62109375,0.8359375,1.23046875,-0.015625,-0.03515625,-0.001953125,24.625,-7.625,-28.25,24.625,-7.625,-28.25,0.024063251880046092,-0.6459178205624648,0.08158470395485813,0.7586534551884615,31.333709037848784,79.73110413690722,-157.26935030973692,0.515625,0.51849365234375,0.3941650390625,-0.55670166015625,32.299076757886986,79.66487873719636,-67.2218653130347,0.42087932898817104,,,,3,0,3,3
1788939203.3254013,4464850162.0,-9.6171875,0.875,1.26953125,-0.015625,-0.044921875,0.005859375,24.625,-7.625,-28.25,24.625,-7.625,-28.25,0.02404758307883184,-0.64591180829546,0.08170556130928235,0.7586460643170112,31.39332793155341,79.72615116744808,-157.21834673580028,0.5157470703125,0.518310546875,0.3941650390625,-0.5567626953125,32.20458718577565,79.6507186766899,-67.30423440979325,0.3308901572798152,,,,3,0,3,3
1788939203.3254013,4464853745.0,-9.6171875,0.875,1.26953125,-0.005859375,-0.046875,0.0078125,23.8125,-7.6875,-29.125,23.8125,-7.6875,-29.125,0.024046630661635326,-0.6459034680604304,0.0818305664549223,0.7586397220650906,31.44871248879869,79.72133635225656,-157.17311575217798,0.5157470703125,0.518310546875,0.3941650390625,-0.5567626953125,32.20458718577565,79.6507186766899,-67.30423440979325,0.3202499108015635,,,,3,0,3,3
1788939203.3254013,4464858428.0,-9.578125,0.8359375,1.30859375,-0.005859375,-0.056640625,0.017578125,23.8125,-7.6875,-29.125,23.8125,-7.6875,-29.125,0.024045205900470285,-0.645868098044994,0.08201380075372144,0.7586500935786372,31.520986396578337,79.71116556678727,-157.1157442040887,0.51593017578125,0.51812744140625,0.39410400390625,-0.5567626953125,32.14243216765383,79.6117141896397,-67.32651161938597,0.8530961575017812,,,,3,0,3,3
1788939203.3417203,4464862010.0,-9.6171875,0.875,1.26953125,0.0,-0.056640625,0.025390625,23.875,-7.625,-28.75,23.875,-7.625,-28.75,0.024028803518495116,-0.6458446350607835,0.08216499979072102,0.7586542274146134,31.588116024095125,79.7029294534701,-157.0596684661291,0.51593017578125,0.51812744140625,0.39410400390625,-0.5567626953125,32.14243216765383,79.6117141896397,-67.32651161938597,0.8494322003024858,,,,3,0,3,3
1788939203.3426416,4464866364.0,-9.6171875,0.875,1.26953125,0.0,-0.056640625,0.025390625,23.875,-7.625,-28.75,23.875,-7.625,-28.75,0.02400964229024092,-0.6458167020568027,0.08234769749334798,0.7586588041663483,31.669035669814036,79.69304660190757,-156.99215910963144,0.51593017578125,0.51812744140625,0.39410400390625,-0.5567626953125,32.14243216765383,79.6117141896397,-67.32651161938597,0.8454586871293226,,,,3,0,3,3
1788939203.3452194,4464869970.0,-9.69921875,0.875,1.15234375,-0.00390625,-0.0625,0.037109375,23.875,-7.625,-28.75,23.875,-7.625,-28.75,0.02397297152134707,-0.6457986796771166,0.08248013365587659,0.758660918669097,31.736505102433615,79.68526657413237,-156.93255642715442,0.51617431640625,0.51800537109375,0.3939208984375,-0.55682373046875,32.126993561367236,79.58972029931479,-67.35773531535541,0.25756010799224816,,,,3,0,3,3
1788939203.3452194,4464873853.0,-9.6953125,0.875,1.19140625,-0.005859375,-0.072265625,0.037109375,24.875,-6.6875,-28.5,24.875,-6.6875,-28.5,0.023934335945921738,-0.645786106987917,0.08255324735894251,0.7586648884288184,31.77919178525929,79.67988476002716,-156.89271969869623,0.51617431640625,0.51800537109375,0.3939208984375,-0.55682373046875,32.126993561367236,79.58972029931479,-67.35773531535541,0.25612891222860795,,,,3,0,3,3
1788939203.3452194,4464877459.0,-9.69921875,0.875,1.26953125,0.01171875,-0.078125,0.04296875,24.875,-6.6875,-28.5,24.875,-6.6875,-28.5,0.023916614490217307,-0.6457630128261483,0.08265738958119495,0.7586737657021263,31.824793596032578,79.67300418457344,-156.85421628826597,0.5164794921875,0.517822265625,0.3936767578125,-0.556884765625,32.09254769226006,79.5414877009988,-67.38252628794784,0.22524801701812094,,,,3,0,3,3
1788939203.3619378,4464885718.0,-9.76953125,0.875,1.34375,0.021484375,-0.08203125,0.0390625,23.6875,-5.875,-29.5625,23.6875,-5.875,-29.5625,0.023930147724869937,-0.6456957174559517,0.08257923554247826,0.7587391240381173,31.75804004136606,79.66686605160344,-156.91573935438922,0.5164794921875,0.517822265625,0.3936767578125,-0.556884765625,32.09254769226006,79.5414877009988,-67.38252628794784,0.22279102784439414,,,,3,0,3,3
1788939203.365951,4464889225.0,-9.84375,0.9140625,1.30859375,0.01953125,-0.087890625,0.037109375,23.6875,-5.875,-29.5625,23.6875,-5.875,-29.5625,0.023921911893861423,-0.6456673804071716,0.0825706540152445,0.7587644318923878,31.746118550241114,79.66300467284294,-156.92631515227862,0.51678466796875,0.5177001953125,0.393310546875,-0.5570068359375,32.08768424445817,79.49494201687006,-67.40795247411529,0.0,,,,3,0,3,3
1788939203.371952,4464893584.0,-9.84375,0.953125,1.34375,0.02734375,-0.091796875,0.044921875,23.375,-7.5,-28.0625,23.375,-7.5,-28.0625,0.023901546092779523,-0.6455623998365256,0.0828446310403652,0.7588245324971158,31.839696861924942,79.6400461315731,-156.8535878587368,0.51678466796875,0.5177001953125,0.393310546875,-0.5570068359375,32.08768424445817,79.49494201687006,-67.40795247411529,0.0,,,,3,0,3,3
1788939203.375454,4464896990.0,-9.88671875,0.953125,1.421875,0.0234375,-0.09765625,0.041015625,23.375,-7.5,-28.0625,23.375,-7.5,-28.0625,0.02388989198300685,-0.6454600664182266,0.08306343517271107,0.7588880295918018,31.905489478226585,79.6194164869351,-156.80484040449522,0.51702880859375,0.517578125,0.3929443359375,-0.55712890625,32.06625465869723,79.43344322350217,-67.42511994323368,0.0,,,,3,0,3,3
1788939203.377466,4464901220.0,-9.8828125,0.953125,1.5,0.0234375,-0.09765625,0.041015625,23.375,-7.5,-28.0625,23.375,-7.5,-28.0625,0.02387780344804522,-0.6453062614979431,0.08335385893357897,0.7589873606160551,31.984438099200368,79.58976447511867,-156.74880943283208,0.51702880859375,0.517578125,0.3929443359375,-0.55712890625,32.06625465869723,79.43344322350217,-67.42511994323368,0.0,,,,3,0,3,3
1788939203.3835218,4464905703.0,-9.84375,1.02734375,1.4609375,0.01953125,-0.111328125,0.037109375,24.9375,-4.8125,-34.0625,24.9375,-4.8125,-34.0625,0.023825851516257816,-0.6451453188827916,0.08321720056211837,0.7591407931693241,31.87839403635881,79.5702795013291,-156.83959824205837,0.51702880859375,0.517578125,0.3929443359375,-0.55712890625,32.06625465869723,79.43344322350217,-67.42511994323368,0.0,,,,3,0,3,3
1788939203.3884194,4464909409.0,-9.8828125,0.9140625,1.34375,0.00390625,-0.1171875,0.033203125,24.9375,-4.8125,-34.0625,24.9375,-4.8125,-34.0625,0.02379754963753321,-0.6450315807503004,0.0830857406333755,0.7592527222008635,31.78476509614864,79.55786157697531,-156.9202767834724,0.517333984375,0.517333984375,0.392578125,-0.55731201171875,31.974289926576677,79.36441077021325,-67.508351339411,0.43744280958856496,,,,3,0,3,3
1788939203.3895383,4464912615.0,-9.7265625,0.8359375,1.3828125,0.005859375,-0.12890625,0.03125,24.9375,-4.8125,-34.0625,24.9375,-4.8125,-34.0625,0.023789639247377006,-0.6449076765129865,0.08296564326723432,0.7593713478110397,31.685631219207043,79.54453800373113,-157.00905769852784,0.517333984375,0.517333984375,0.392578125,-0.55731201171875,31.974289926576677,79.36441077021325,-67.508351339411,0.43379129887642626,,,,3,0,3,3
1788939203.3914914,4464920675.0,-9.65625,0.875,1.61328125,0.013671875,-0.146484375,0.046875,27.75,-6.5,-34.875,27.75,-6.5,-34.875,0.02377268152175007,-0.6443723592636901,0.08276969506398048,0.7598475503739069,31.401669016196838,79.47799089076406,-157.276109952201,0.5177001953125,0.51708984375,0.39208984375,-0.55755615234375,31.89196977805754,79.29087814400219,-67.60527403032067,0.0,,,,3,0,2,3
1788939203.3914914,4464924757.0,-9.65625,0.9140625,1.5390625,0.017578125,-0.15625,0.05859375,26.9375,-7.125,-36.0625,26.9375,-7.125,-36.0625,0.023740939452349095,-0.6441202544152979,0.08266783714363787,0.7600733480052335,31.273045261000814,79.44593207491317,-157.3940553414797,0.5177001953125,0.51708984375,0.39208984375,-0.55755615234375,31.89196977805754,79.29087814400219,-67.60527403032067,0.0,,,,3,0,2,3
1788939203.4049125,4464928564.0,-9.6171875,0.875,1.5,0.02734375,-0.154296875,0.06640625,26.9375,-7.125,-36.0625,26.9375,-7.125,-36.0625,0.023737165638435784,-0.6439259381194511,0.08260037829247957,0.7602454279312554,31.172315816713603,79.42168463005736,-157.48914153255157,0.51806640625,0.516845703125,0.39154052734375,-0.557861328125,31.800902857248946,79.21750345808792,-67.72729063741572,0.0,,,,3,0,2,3
1788939203.4071693,4464932146.0,-9.6171875,0.875,1.5390625,0.033203125,-0.154296875,0.068359375,27.3125,-7.75,-34.0625,27.3125,-7.75,-34.0625,0.023817356425961098,-0.6437040776234837,0.08285249027017645,0.7604033527278856,31.178071705279873,79.38779193803903,-157.510743186075,0.51806640625,0.516845703125,0.39154052734375,-0.557861328125,31.800902857248946,79.21750345808792,-67.72729063741572,0.0,,,,3,0,2,3
1788939203.4071693,4464936300.0,-9.578125,0.875,1.61328125,0.033203125,-0.154296875,0.068359375,27.3125,-7.75,-34.0625,27.3125,-7.75,-34.0625,0.023855248571657568,-0.6433389248928119,0.08305363706003276,0.7606891929063051,31.123418439798204,79.33451546661674,-157.58528265372732,0.51806640625,0.516845703125,0.39154052734375,-0.557861328125,31.800902857248946,79.21750345808792,-67.72729063741572,0.0,,,,3,0,2,3
1788939203.4071693,4464940206.0,-9.578125,0.875,1.65234375,0.048828125,-0.15234375,0.0703125,27.3125,-7.75,-34.0625,27.3125,-7.75,-34.0625,0.023892620649084376,-0.6429936887091837,0.08324055071255197,0.7609594402303892,31.070403087487037,79.284306397972,-157.65696195823108,0.51849365234375,0.5166015625,0.390869140625,-0.55810546875,31.744824122849383,79.10119337194658,-67.77096974134679,0.5566804133754202,,,,3,0,2,3
1788939203.4214907,4464943989.0,-9.6171875,0.9140625,1.61328125,0.05859375,-0.146484375,0.06640625,23.5,-7.25,-29.125,23.5,-7.25,-29.125,0.02391270342597947,-0.642729730319163,0.0835816551267975,0.7611443905757844,31.12204203384756,79.23992519869519,-157.63512299866704,0.51849365234375,0.5166015625,0.390869140625,-0.55810546875,31.744824122849383,79.10119337194658,-67.77096974134679,0.5337866510672199,,,,3,0,3,3
1788939203.4264703,4464948671.0,-9.6171875,0.9140625,1.61328125,0.06640625,-0.140625,0.068359375,23.5,-7.25,-29.125,23.5,-7.25,-29.125,0.0239497515079634,-0.6424154950872113,0.08402145877633957,0.7613600564382504,31.1938187448841,79.18665530317132,-157.6026567464584,0.518798828125,0.5164794921875,0.39019775390625,-0.55841064453125,31.71795112042012,79.01694368991647,-67.83328263024046,0.45019795734616064,,,,3,0,3,3
1788939203.4284234,4464952454.0,-9.65625,0.953125,1.61328125,0.064453125,-0.138671875,0.060546875,24.625,-6.125,-27.75,24.625,-6.125,-27.75,0.02397084436052437,-0.6421325442282536,0.08406967490635738,0.7615927284479105,31.107567583013246,79.14818583222996,-157.69484640889874,0.518798828125,0.5164794921875,0.39019775390625,-0.55841064453125,31.71795112042012,79.01694368991647,-67.83328263024046,0.43491036011363793,,,,3,0,3,3
1788939203.4284234,4464956531.0,-9.65625,0.953125,1.65234375,0.064453125,-0.138671875,0.060546875,24.625,-6.125,-27.75,24.625,-6.125,-27.75,0.02399289798093101,-0.6418115763663585,0.08415823012160728,0.7618527637223647,31.02617716204703,79.10349518047006,-157.7855940243835,0.518798828125,0.5164794921875,0.39019775390625,-0.55841064453125,31.71795112042012,79.01694368991647,-67.83328263024046,0.42086456746003037,,,,3,0,3,3
1788939203.4284234,4464960037.0,-9.69921875,0.98828125,1.65234375,0.0546875,-0.134765625,0.0625,24.625,-6.125,-27.75,24.625,-6.125,-27.75,0.023959593518338335,-0.6415358518379748,0.08424795875422145,0.7620760920870744,30.980327704539683,79.06268836950949,-157.83635042089668,0.5191650390625,0.516357421875,0.3895263671875,-0.5587158203125,31.70796373674635,78.9472402369278,-67.90290281731171,0.0,,,,3,0,3,3
1788939203.4413352,4464963320.0,-9.6953125,1.02734375,1.69140625,0.046875,-0.142578125,0.05078125,23.75,-6.8125,-29.3125,23.75,-6.8125,-29.3125,0.023930059098058978,-0.6412798775357843,0.08447597597077337,0.762267197525276,31.001442055608557,79.02076163977576,-157.83175100744558,0.5191650390625,0.516357421875,0.3895263671875,-0.5587158203125,31.70796373674635,78.9472402369278,-67.90290281731171,0.0,,,,3,0,3,3
1788939203.4413352,4464967803.0,-9.65625,1.14453125,1.65234375,0.052734375,-0.13671875,0.04296875,23.75,-6.8125,-29.3125,23.75,-6.8125,-29.3125,0.023857633748393274,-0.6409876979508331,0.08481195341993442,0.7624778796428876,31.071483426291646,78.96927084929234,-157.78361137031408,0.51947021484375,0.51617431640625,0.388916015625,-0.5589599609375,31.656640963656333,78.84343632869728,-67.94426170268164,0.47472561335872765,,,,3,0,3,3
1788939203.4354107,4464972032.0,-9.69921875,1.14453125,1.65234375,0.052734375,-0.13671875,0.04296875,23.75,-6.8125,-29.3125,23.75,-6.8125,-29.3125,0.023787910278771338,-0.6407187283879452,0.0851313190506492,0.762670508761287,31.1409380820848,78.92147361252555,-157.73489886070118,0.51947021484375,0.51617431640625,0.388916015625,-0.5589599609375,31.656640963656333,78.84343632869728,-67.94426170268164,0.4601085182609778,,,,3,0,3,3
1788939203.4413352,4464975439.0,-9.7265625,1.1796875,1.69140625,0.04296875,-0.146484375,0.0390625,23.8125,-5.8125,-28.875,23.8125,-5.8125,-28.875,0.023681431750156735,-0.6404666565081679,0.0851972998530761,0.7628781500274183,31.117472357396004,78.88172997596293,-157.75535738676217,0.51947021484375,0.51617431640625,0.388916015625,-0.5589599609375,31.656640963656333,78.84343632869728,-67.94426170268164,0.4585875713620652,,,,3,0,3,3
1788939203.4548337,4464979445.0,-9.7265625,1.1796875,1.73046875,0.029296875,-0.146484375,0.033203125,23.8125,-5.8125,-28.875,23.8125,-5.8125,-28.875,0.02357309809658443,-0.6401584517933968,0.08524489019292315,0.7631348336562855,31.067555236065683,78.83493378860419,-157.80066839358747,0.519775390625,0.51593017578125,0.38836669921875,-0.55926513671875,31.556750494869757,78.75738741786202,-68.0538477450475,0.7016294416953519,,,,3,0,3,3
1788939203.4614155,4464983228.0,-9.69921875,1.1796875,1.765625,0.0234375,-0.140625,0.021484375,23.5625,-7.1875,-28.75,23.5625,-7.1875,-28.75,0.023534990089413597,-0.6398932030496677,0.08546005963492422,0.7633343770193526,31.082435054143012,78.79186345379011,-157.80057493514695,0.519775390625,0.51593017578125,0.38836669921875,-0.55926513671875,31.556750494869757,78.75738741786202,-68.0538477450475,0.6962743923897593,,,,3,0,3,3
1788939203.4649975,4464987034.0,-9.62109375,1.14453125,1.8046875,0.015625,-0.14453125,0.0078125,23.5625,-7.1875,-28.75,23.5625,-7.1875,-28.75,0.02351779626445976,-0.6396069010751976,0.08563253656717983,0.7635554950603896,31.064977202049132,78.74801034114408,-157.83104907868704,0.52008056640625,0.51556396484375,0.387939453125,-0.55963134765625,31.371557264086874,78.68725684882985,-68.25426179766491,0.5068357470217988,,,,3,0,3,3
1788939203.4669724,4464991164.0,-9.578125,1.1796875,1.73046875,0.015625,-0.14453125,0.0078125,23.5625,-7.1875,-28.75,23.5625,-7.1875,-28.75,0.023483435658465564,-0.6393226538822301,0.08584231996691406,0.7637710184246027,31.06999335115522,78.70272424858531,-157.84070748393103,0.52008056640625,0.51556396484375,0.387939453125,-0.55963134765625,31.371557264086874,78.68725684882985,-68.25426179766491,0.5007941787213407,,,,3,0,3,3
1788939203.470922,4464995070.0,-9.58203125,1.1796875,1.65234375,0.00390625,-0.13671875,0.009765625,23.375,-6.875,-29.75,23.375,-6.875,-29.75,0.0233985365032835,-0.6390934858351665,0.08602125260492084,0.7639452656786616,31.096607024183612,78.66373186283762,-157.8220748950397,0.52008056640625,0.51556396484375,0.387939453125,-0.55963134765625,31.371557264086874,78.68725684882985,-68.25426179766491,0.5017677754152834,,,,3,0,3,3
1788939203.470922,4464998976.0,-9.6171875,1.21875,1.65234375,-0.00390625,-0.14453125,0.0078125,23.375,-6.875,-29.75,23.375,-6.875,-29.75,0.023303776825716344,-0.6388600026326023,0.08618378062752763,0.7641251121241041,31.117786978596527,78.62425397694672,-157.8067361582826,0.52044677734375,0.51519775390625,0.3875732421875,-0.5599365234375,31.213624371848436,78.63117268599717,-68.43482205014492,0.0,,,,3,0,3,3
1788939203.470922,4465002759.0,-9.578125,1.1796875,1.765625,-0.001953125,-0.158203125,0.00390625,24.5625,-5.8125,-34.5625,24.5625,-5.8125,-34.5625,0.023246576113000888,-0.6385897740132055,0.08604632379658819,0.7643681883659721,30.986886698493098,78.58980311442095,-157.92200519487565,0.52044677734375,0.51519775390625,0.3875732421875,-0.5599365234375,31.213624371848436,78.63117268599717,-68.43482205014492,0.0,,,,3,0,3,3
1788939203.470922,4465007142.0,-9.5,1.1796875,1.765625,0.005859375,-0.158203125,0.00390625,24.5625,-5.8125,-34.5625,24.5625,-5.8125,-34.5625,0.02318790013857303,-0.6382725497916371,0.0859066358849773,0.7646505890801182,30.84073162947122,78.5490298432423,-158.052275599618,0.520751953125,0.5147705078125,0.38720703125,-0.560302734375,30.996111931062057,78.55980844584406,-68.65456951412398,0.0,,,,3,0,3,3
1788939203.4808218,4465010518.0,-9.46484375,1.14453125,1.765625,0.005859375,-0.158203125,0.00390625,24.5625,-5.8125,-34.5625,24.5625,-5.8125,-34.5625,0.02315233787787699,-0.6380302947828195,0.08579114967929617,0.7648667797903381,30.72313987156587,78.51845932520206,-158.1577680231174,0.520751953125,0.5147705078125,0.38720703125,-0.560302734375,30.996111931062057,78.55980844584406,-68.65456951412398,0.0,,,,3,0,3,3
1788939203.4867463,4465014501.0,-9.5,1.1796875,1.73046875,0.005859375,-0.154296875,0.0,27.125,-6.9375,-35.0625,27.125,-6.9375,-35.0625,0.023048659634934965,-0.6377290497729277,0.08575347983818407,0.7651253224540369,30.64139706935967,78.4751934467666,-158.22830324287247,0.520751953125,0.5147705078125,0.38720703125,-0.560302734375,30.996111931062057,78.55980844584406,-68.65456951412398,0.0,,,,3,0,2,3
1788939203.4952571,4465018507.0,-9.58203125,1.21875,1.69140625,0.0,-0.15625,-0.001953125,27.125,-6.9375,-35.0625,27.125,-6.9375,-35.0625,0.022888077389474022,-0.6374658301669751,0.0857317115731703,0.7653518961325421,30.59721604935669,78.43440940441293,-158.25790835050742,0.52105712890625,0.51434326171875,0.38677978515625,-0.5606689453125,30.78448848561253,78.47032546764396,-68.85309067669036,0.0,,,,3,0,2,3
1788939203.4997125,4465022190.0,-9.66015625,1.21875,1.73046875,0.0078125,-0.1484375,-0.0078125,26.8125,-7.4375,-35.125,26.8125,-7.4375,-35.125,0.022786507852367462,-0.6372183881527463,0.08582253851572727,0.7655507773770636,30.587247726326343,78.39487416731733,-158.267309671646,0.52105712890625,0.51434326171875,0.38677978515625,-0.5606689453125,30.78448848561253,78.47032546764396,-68.85309067669036,0.0,,,,3,0,2,3
1788939203.5025938,4465025943.0,-9.6953125,1.21875,1.73046875,0.0078125,-0.1484375,-0.0078125,26.8125,-7.4375,-35.125,26.8125,-7.4375,-35.125,0.022677556039026187,-0.6369747773495946,0.08591525461139235,0.7657463225491787,30.581705725799097,78.35552837396021,-158.27183544519073,0.52105712890625,0.51434326171875,0.38677978515625,-0.5606689453125,30.78448848561253,78.47032546764396,-68.85309067669036,0.0,,,,3,0,2,3
1788939203.5005972,4465030050.0,-9.73046875,1.21875,1.69140625,0.03125,-0.138671875,-0.0234375,26.8125,-7.4375,-35.125,26.8125,-7.4375,-35.125,0.022609727351367095,-0.6367746654100663,0.08603536441100927,0.7659012611242129,30.588824753992583,78.32282309351069,-158.2692460576865,0.52130126953125,0.513916015625,0.38641357421875,-0.56109619140625,30.545861426611122,78.40375106260849,-69.10395705866928,0.0,,,,3,0,2,3
1788939203.5025938,4465034809.0,-9.6953125,1.14453125,1.73046875,0.03515625,-0.1328125,-0.037109375,25.875,-6.875,-34.875,25.875,-6.875,-34.875,0.022588105360964617,-0.6365258931086918,0.08588559866513167,0.7661254654691464,30.45341582959285,78.29281646169528,-158.39089112976427,0.52130126953125,0.513916015625,0.38641357421875,-0.56109619140625,30.545861426611122,78.40375106260849,-69.10395705866928,0.0,,,,3,0,2,3
1788939203.5164917,4465038315.0,-9.80859375,1.1796875,1.765625,0.044921875,-0.12890625,-0.048828125,25.875,-6.875,-34.875,25.875,-6.875,-34.875,0.02258221290274074,-0.6363385444008353,0.08580511183813849,0.7662902735600171,30.36213126328321,78.26969447942295,-158.47530219577544,0.5213623046875,0.5135498046875,0.38604736328125,-0.56158447265625,30.286216651714145,78.33436948891136,-69.36965181602888,0.70699656772587,,,,3,0,2,3
1788939203.5187485,4465042298.0,-9.76953125,1.1796875,1.73046875,0.037109375,-0.130859375,-0.05078125,23.8125,-7.6875,-29.125,23.8125,-7.6875,-29.125,0.022685074566596852,-0.6361429802158736,0.08598208387040546,0.7664297602306928,30.342050928182026,78.24251015411144,-158.51846108449794,0.5213623046875,0.5135498046875,0.38604736328125,-0.56158447265625,30.286216651714145,78.33436948891136,-69.36965181602888,0.7006180437516685,,,,3,0,3,3
1788939203.5187485,4465045975.0,-9.80859375,1.1796875,1.765625,0.037109375,-0.130859375,-0.05078125,23.8125,-7.6875,-29.125,23.8125,-7.6875,-29.125,0.022780611417568136,-0.6359547320039272,0.08614711363923802,0.7665646074512461,30.321745691536353,78.2163619688968,-158.56026435609044,0.5213623046875,0.5135498046875,0.38604736328125,-0.56158447265625,30.286216651714145,78.33436948891136,-69.36965181602888,0.6964055996575016,,,,3,0,3,3
1788939203.525325,4465049581.0,-9.8046875,1.14453125,1.765625,0.03515625,-0.13671875,-0.05859375,23.8125,-7.6875,-29.125,23.8125,-7.6875,-29.125,0.02289123090416565,-0.6357652299105018,0.08629814650293723,0.7667015024732226,30.290745979435375,78.19100029699608,-158.612846271304,0.5213623046875,0.51318359375,0.3857421875,-0.5621337890625,29.999121310310496,78.28750052657274,-69.68778598940172,0.6541979778880547,,,,3,0,3,3
1788939203.525325,4465054140.0,-9.76953125,1.06640625,1.8046875,0.033203125,-0.13671875,-0.064453125,23.75,-6.3125,-29.25,23.75,-6.3125,-29.25,0.023018508198381492,-0.635457365785483,0.08612498177725225,0.7669723411330841,30.083720517572033,78.1591620637723,-158.81637900298168,0.5213623046875,0.51318359375,0.3857421875,-0.5621337890625,29.999121310310496,78.28750052657274,-69.68778598940172,0.6491510524713409,,,,3,0,3,3
1788939203.53502,4465057446.0,-9.6953125,1.02734375,1.8046875,0.021484375,-0.13671875,-0.06640625,23.75,-6.3125,-29.25,23.75,-6.3125,-29.25,0.023135773161312535,-0.6352394701928115,0.08596527065727408,0.7671672071655604,29.914139001418434,78.13855658949076,-158.98265865414334,0.52142333984375,0.5126953125,0.385498046875,-0.56268310546875,29.660296599774576,78.2330932033696,-70.03820327776273,0.7330343733345418,,,,3,0,3,3
1788939203.5372481,4465061876.0,-9.69921875,0.98828125,1.84375,0.021484375,-0.13671875,-0.06640625,23.75,-6.3125,-29.25,23.75,-6.3125,-29.25,0.023331655001754402,-0.6349405832051812,0.0857618629292285,0.7674314253018649,29.67820131654245,78.11102516054937,-159.2182041381028,0.52142333984375,0.5126953125,0.385498046875,-0.56268310546875,29.660296599774576,78.2330932033696,-70.03820327776273,0.7252167672008711,,,,3,0,3,3
1788939203.5394762,4465065282.0,-9.73046875,1.02734375,1.8046875,0.009765625,-0.134765625,-0.064453125,22.75,-7.3125,-29.875,22.75,-7.3125,-29.875,0.02344668769668792,-0.6347508971890756,0.08586824921068167,0.7675729249597135,29.629178647653088,78.08691227102423,-159.285515571,0.52142333984375,0.5126953125,0.385498046875,-0.56268310546875,29.660296599774576,78.2330932033696,-70.03820327776273,0.7213420845568693,,,,3,0,3,3
1788939203.5394762,4465069189.0,-9.765625,0.9140625,1.765625,0.009765625,-0.123046875,-0.056640625,22.75,-7.3125,-29.875,22.75,-7.3125,-29.875,0.0236639917696094,-0.6346050812541335,0.08594993339923246,0.7676776766903087,29.552027358417323,78.0731222060603,-159.3872115665097,0.521484375,0.51220703125,0.3853759765625,-0.56317138671875,29.328446087552308,78.19675033371468,-70.38150714626879,0.5222574001042823,,,,3,0,3,3
1788939203.5505347,4465073071.0,-9.6953125,0.875,1.765625,0.017578125,-0.123046875,-0.0546875,23.8125,-8.75,-29.5,23.8125,-8.75,-29.5,0.02382904768226869,-0.634436944260679,0.08608555752413966,0.7677963382495949,29.506686673517386,78.05297049178688,-159.457288532011,0.521484375,0.51220703125,0.3853759765625,-0.56317138671875,29.328446087552308,78.19675033371468,-70.38150714626879,0.5131961284859855,,,,3,0,3,3
1788939203.5505347,4465077654.0,-9.62109375,0.875,1.8046875,0.0234375,-0.12109375,-0.046875,23.8125,-8.75,-29.5,23.8125,-8.75,-29.5,0.024018222378883645,-0.6342209841982441,0.08627320659599592,0.7679477859985103,29.461290737413453,78.02589286643783,-159.533702228817,0.5216064453125,0.51177978515625,0.3851318359375,-0.5635986328125,29.066316666322056,78.13960022007741,-70.64456352517907,0.6974390907314774,,,,3,0,3,3
1788939203.557422,4465080907.0,-9.65625,0.875,1.84375,0.0234375,-0.12109375,-0.046875,23.8125,-8.75,-29.5,23.8125,-8.75,-29.5,0.024154491721569766,-0.6340598720699397,0.08640667699971255,0.7680615374631069,29.426429038516446,78.00568328344919,-159.59077571253636,0.5216064453125,0.51177978515625,0.3851318359375,-0.5635986328125,29.066316666322056,78.13960022007741,-70.64456352517907,0.6931161536547549,,,,3,0,3,3
1788939203.5633464,4465084914.0,-9.7265625,0.953125,1.84375,0.017578125,-0.11328125,-0.03515625,24.0,-7.5625,-28.0,24.0,-7.5625,-28.0,0.0242804468216329,-0.6338637982541089,0.08657974294578237,0.7681999045017244,29.4007690075023,77.97935126779598,-159.64109309133428,0.5216064453125,0.51177978515625,0.3851318359375,-0.5635986328125,29.066316666322056,78.13960022007741,-70.64456352517907,0.6919127216624434,,,,3,0,3,3
1788939203.5664184,4465088820.0,-9.69921875,0.953125,1.84375,0.009765625,-0.103515625,-0.033203125,24.0,-7.5625,-28.0,24.0,-7.5625,-28.0,0.02438867935016058,-0.6336866333582118,0.08673957464266957,0.7683245988600774,29.380859553676363,77.9552686619518,-159.68311294942373,0.52166748046875,0.51141357421875,0.38494873046875,-0.56402587890625,28.819534064554386,78.10624370763497,-70.91403144143507,0.3201063802485147,,,,3,0,3,3
1788939203.5675194,4465092803.0,-9.73046875,0.953125,1.8046875,0.013671875,-0.099609375,-0.037109375,23.8125,-7.75,-29.4375,23.8125,-7.75,-29.4375,0.024518965750200003,-0.6335418949219799,0.08689793494878163,0.7684219131433233,29.363339337693635,77.93640954443023,-159.72438376220933,0.52166748046875,0.51141357421875,0.38494873046875,-0.56402587890625,28.819534064554386,78.10624370763497,-70.91403144143507,0.31717845317564425,,,,3,0,3,3
1788939203.5675194,4465096985.0,-9.73046875,0.9140625,1.8046875,0.015625,-0.09375,-0.052734375,23.8125,-7.75,-29.4375,23.8125,-7.75,-29.4375,0.024711972216704854,-0.6334082834535636,0.08703592889862746,0.768510254949356,29.321821953567138,77.92187111019027,-159.79307872852368,0.52178955078125,0.5111083984375,0.38482666015625,-0.5643310546875,28.64035064405451,78.08799084682738,-71.11919384631135,0.0,,,,3,0,3,3
1788939203.5675194,4465100362.0,-9.69921875,0.875,1.84375,0.015625,-0.09375,-0.052734375,23.8125,-7.75,-29.4375,23.8125,-7.75,-29.4375,0.024898373345599425,-0.6332755527405495,0.08713884371218894,0.7686019562962336,29.268382015420492,77.90810744929193,-159.870283723284,0.52178955078125,0.5111083984375,0.38482666015625,-0.5643310546875,28.64035064405451,78.08799084682738,-71.11919384631135,0.0,,,,3,0,3,3
1788939203.582145,4465104445.0,-9.62109375,0.875,1.8046875,0.021484375,-0.087890625,-0.064453125,26.3125,-7.75,-34.25,26.3125,-7.75,-34.25,0.02518379364201287,-0.6331586123695898,0.08693793143087424,0.768711743242246,29.06544375929969,77.9078029847023,-160.08013238646095,0.52178955078125,0.5111083984375,0.38482666015625,-0.5643310546875,28.64035064405451,78.08799084682738,-71.11919384631135,0.0,,,,3,0,3,3
1788939203.582145,4465108251.0,-9.58203125,0.875,1.8046875,0.029296875,-0.08203125,-0.064453125,26.3125,-7.75,-34.25,26.3125,-7.75,-34.25,0.025461881562285245,-0.6330522160750651,0.08676636606006898,0.7688095876291394,28.879834513471465,77.9077813975077,-160.27444919834758,0.521728515625,0.5107421875,0.38470458984375,-0.56475830078125,28.361970543755923,78.04607785539412,-71.39263391642271,0.0,,,,3,0,3,3
1788939203.5911634,4465112810.0,-9.54296875,0.875,1.8046875,0.044921875,-0.072265625,-0.064453125,26.875,-9.3125,-34.9375,26.875,-9.3125,-34.9375,0.025731456240824853,-0.6329277807281523,0.08695843895404262,0.7688813604431691,28.840581814971635,77.89580340515299,-160.35154061750086,0.521728515625,0.5107421875,0.38470458984375,-0.56475830078125,28.361970543755923,78.04607785539412,-71.39263391642271,0.0,,,,3,0,2,3
1788939203.5911634,4465116964.0,-9.54296875,0.875,1.8046875,0.044921875,-0.072265625,-0.064453125,26.875,-9.3125,-34.9375,26.875,-9.3125,-34.9375,0.025977635960538082,-0.6328159564048652,0.08713283266148282,0.7689453798688716,28.804965364442175,77.88513561196861,-160.42162876465164,0.521728515625,0.5107421875,0.38470458984375,-0.56475830078125,28.361970543755923,78.04607785539412,-71.39263391642271,0.0,,,,3,0,2,3
1788939203.5978312,4465120670.0,-9.50390625,0.875,1.8046875,0.06640625,-0.0625,-0.06640625,26.875,-9.3125,-34.9375,26.875,-9.3125,-34.9375,0.02622252842231983,-0.6327261712892787,0.08731833624098169,0.7689899084675024,28.780689273712703,77.8771321837982,-160.48115823956545,0.52154541015625,0.51055908203125,0.38458251953125,-0.565185546875,28.149952857823756,78.03535915208822,-71.64072209929547,0.0,,,,3,0,2,3
1788939203.5908651,4465124653.0,-9.46484375,0.9140625,1.8046875,0.072265625,-0.05078125,-0.05859375,27.5625,-5.875,-34.125,27.5625,-5.875,-34.125,0.026427943504926336,-0.6326596417719399,0.08715889415323927,0.7690556993125307,28.634024752981897,77.87941619810263,-160.63156144740674,0.52154541015625,0.51055908203125,0.38458251953125,-0.565185546875,28.149952857823756,78.03535915208822,-71.64072209929547,0.0,,,,3,0,2,3
1788939203.5978312,4465128159.0,-9.4609375,0.953125,1.84375,0.07421875,-0.044921875,-0.05859375,27.5625,-5.875,-34.125,27.5625,-5.875,-34.125,0.026600091577461318,-0.6325964181810099,0.08702613450116528,0.7691168043583579,28.509324856066733,77.8802376850707,-160.7594743190446,0.52130126953125,0.510498046875,0.3843994140625,-0.56561279296875,27.99129193312212,78.03219047025601,-71.85516795546683,0.0,,,,3,0,2,3
1788939203.611629,4465131742.0,-9.4609375,0.98828125,1.84375,0.056640625,-0.033203125,-0.0546875,26.8125,-6.4375,-34.6875,26.8125,-6.4375,-34.6875,0.026733341697357606,-0.6325387426268397,0.08687715849394897,0.7691764601505731,28.391406294022325,77.88077747030756,-160.8761026290629,0.52130126953125,0.510498046875,0.3843994140625,-0.56561279296875,27.99129193312212,78.03219047025601,-71.85516795546683,0.0,,,,3,0,2,3
1788939203.6135967,4465136018.0,-9.4609375,0.98828125,1.84375,0.056640625,-0.033203125,-0.0546875,26.8125,-6.4375,-34.6875,26.8125,-6.4375,-34.6875,0.026890451096235658,-0.6324700268335939,0.08669939505945107,0.7692475438331144,28.251307911119998,77.88130845248578,-161.01450795812565,0.52130126953125,0.510498046875,0.3843994140625,-0.56561279296875,27.99129193312212,78.03219047025601,-71.85516795546683,0.0,,,,3,0,2,3
1788939203.6113224,4465139625.0,-9.42578125,0.953125,1.84375,0.05859375,-0.0234375,-0.05078125,26.8125,-6.4375,-34.6875,26.8125,-6.4375,-34.6875,0.027028805382690438,-0.6324251080017127,0.08655609252725774,0.7692957619115157,28.137706733177183,77.88352614519121,-161.1276855387452,0.52105712890625,0.51043701171875,0.38427734375,-0.56597900390625,27.839650813924543,78.02940131439112,-72.04710176226457,0.0,,,,3,0,2,3
1788939203.6135967,4465143984.0,-9.421875,0.953125,1.921875,0.048828125,-0.0234375,-0.048828125,22.625,-7.4375,-30.625,22.625,-7.4375,-30.625,0.02719489711926005,-0.6322864609200195,0.08671223574238983,0.7693862859971353,28.11241538612518,77.86672233323029,-161.17946507068342,0.52105712890625,0.51043701171875,0.38427734375,-0.56597900390625,27.839650813924543,78.02940131439112,-72.04710176226457,0.0,,,,3,0,3,3
1788939203.6135967,4465147490.0,-9.4609375,0.98828125,1.95703125,0.021484375,-0.01171875,-0.0390625,22.625,-7.4375,-30.625,22.625,-7.4375,-30.625,0.027269055550543236,-0.6321889918159752,0.08680757500201973,0.7694530019165244,28.10180329718531,77.8537623130399,-161.204046408708,0.5208740234375,0.5103759765625,0.38421630859375,-0.56622314453125,27.721449600927535,78.02272023690682,-72.18089298184208,0.0,,,,3,0,3,3
1788939203.6266534,4465151520.0,-9.46484375,0.98828125,1.921875,0.021484375,-0.01171875,-0.0390625,22.625,-7.4375,-30.625,22.625,-7.4375,-30.625,0.02735329489867871,-0.6320861489125625,0.08693900246859028,0.769519660217228,28.101440373801044,77.8395606654845,-161.22216461471552,0.5208740234375,0.5103759765625,0.38421630859375,-0.56622314453125,27.721449600927535,78.02272023690682,-72.18089298184208,0.0,,,,3,0,3,3
1788939203.6274347,4465155126.0,-9.46484375,0.953125,1.921875,0.009765625,-0.00390625,-0.0390625,23.1875,-5.75,-28.625,23.1875,-5.75,-28.625,0.027422812761609627,-0.632034329640206,0.08677620953291434,0.7695781214117232,27.999331992353852,77.83882798976681,-161.31665345428002,0.5208740234375,0.5103759765625,0.38421630859375,-0.56622314453125,27.721449600927535,78.02272023690682,-72.18089298184208,0.0,,,,3,0,3,3
1788939203.6344008,4465159132.0,-9.50390625,0.9140625,1.921875,-0.00390625,0.013671875,-0.029296875,23.1875,-5.75,-28.625,23.1875,-5.75,-28.625,0.027481228708425138,-0.6320122853455649,0.08657598254562404,0.7696166919234609,27.893473892767506,77.84262478337995,-161.41088465585818,0.520751953125,0.51031494140625,0.38433837890625,-0.5662841796875,27.638250146774325,78.03004142564174,-72.25372526499889,0.0,,,,3,0,3,3
1788939203.6422303,4465162915.0,-9.54296875,0.9140625,1.921875,-0.005859375,0.025390625,-0.01953125,23.8125,-7.6875,-29.125,23.8125,-7.6875,-29.125,0.027525304969410726,-0.6319920385786127,0.08671480180649453,0.7696161146358946,27.93129558503696,77.83810387099513,-161.38805509491334,0.520751953125,0.51031494140625,0.38433837890625,-0.5662841796875,27.638250146774325,78.03004142564174,-72.25372526499889,0.0,,,,3,0,3,3
1788939203.6458309,4465167698.0,-9.5390625,0.9140625,2.03515625,-0.009765625,0.03515625,-0.01953125,23.8125,-7.6875,-29.125,23.8125,-7.6875,-29.125,0.027566726286504674,-0.6319437043938034,0.08681828932260946,0.7696426539102272,27.947738263136383,77.83050060419885,-161.38352593270872,0.52069091796875,0.51031494140625,0.384521484375,-0.56622314453125,27.619790013887883,78.05256971535208,-72.26454398081776,0.0,,,,3,0,3,3
1788939203.6438777,4465170751.0,-9.578125,0.9140625,1.99609375,-0.009765625,0.03515625,-0.01953125,23.8125,-7.6875,-29.125,23.8125,-7.6875,-29.125,0.0275971731392817,-0.6319195503024162,0.08689979744340175,0.7696521962449067,27.96516509227429,77.82633342936592,-161.3752886963821,0.52069091796875,0.51031494140625,0.384521484375,-0.56622314453125,27.619790013887883,78.05256971535208,-72.26454398081776,0.0,,,,3,0,3,3
1788939203.6458309,4465174657.0,-9.6171875,0.953125,1.99609375,-0.009765625,0.056640625,-0.00390625,23.25,-6.625,-28.375,23.25,-6.625,-28.375,0.027596055043775946,-0.6318970307915379,0.08689336634895671,0.769671451404692,27.95669468164252,77.82337788637625,-161.38316763873064,0.52069091796875,0.51031494140625,0.384521484375,-0.56622314453125,27.619790013887883,78.05256971535208,-72.26454398081776,0.0,,,,3,0,3,3
1788939203.6548638,4465178664.0,-9.6171875,0.953125,1.95703125,-0.01953125,0.064453125,0.0,23.25,-6.625,-28.375,23.25,-6.625,-28.375,0.02757899955877489,-0.6318852318819268,0.08688557540388905,0.7696826289449411,27.955468712834893,77.82135964290269,-161.38237975939714,0.5206298828125,0.5103759765625,0.384765625,-0.5660400390625,27.651110406094084,78.07736312320691,-72.2072513217042,0.43059803126557167,,,,3,0,3,3
1788939203.6615033,4465183323.0,-9.6171875,0.98828125,1.99609375,-0.021484375,0.07421875,-0.009765625,23.4375,-7.75,-29.4375,23.4375,-7.75,-29.4375,0.02755006248892405,-0.6319297658599273,0.08702931385535997,0.7696308619116953,28.035281911341414,77.82299458385204,-161.31193844388935,0.5206298828125,0.5103759765625,0.384765625,-0.5660400390625,27.651110406094084,78.07736312320691,-72.2072513217042,0.43789226028587397,,,,3,0,3,3
1788939203.6639159,4465186629.0,-9.66015625,1.06640625,1.99609375,-0.017578125,0.095703125,-0.009765625,23.4375,-7.75,-29.4375,23.4375,-7.75,-29.4375,0.027510428408061244,-0.6319958090917035,0.08714419446496609,0.7695650479266716,28.112520859943995,77.8278554688882,-161.2408092561466,0.52056884765625,0.510498046875,0.38507080078125,-0.5657958984375,27.72115115897544,78.12173236234165,-72.12332684147829,0.0,,,,3,0,3,3
1788939203.6639159,4465190406.0,-9.65625,0.98828125,1.8828125,-0.017578125,0.095703125,-0.009765625,23.4375,-7.75,-29.4375,23.4375,-7.75,-29.4375,0.027489907723004196,-0.6321090519994546,0.08729864076908415,0.7694552609954668,28.2132743558978,77.83884286405161,-161.15090965211132,0.52056884765625,0.510498046875,0.38507080078125,-0.5657958984375,27.72115115897544,78.12173236234165,-72.12332684147829,0.0,,,,3,0,3,3
1788939203.6639159,4465194965.0,-9.65625,0.9140625,1.8828125,-0.01953125,0.103515625,-0.0234375,23.625,-7.125,-28.375,23.625,-7.125,-28.375,0.02757056690058224,-0.6322289476775778,0.08742918486334877,0.7693390404713734,28.275457150278562,77.85485488432546,-161.10585503034451,0.52056884765625,0.510498046875,0.38507080078125,-0.5657958984375,27.72115115897544,78.12173236234165,-72.12332684147829,0.0,,,,3,0,3,3
1788939203.6639159,4465198871.0,-9.578125,0.9140625,1.8828125,-0.015625,0.103515625,-0.025390625,23.625,-7.125,-28.375,23.625,-7.125,-28.375,0.027635005917972643,-0.6323143180611517,0.08753126260690665,0.7692549562331172,28.32142748171118,77.86627956087213,-161.0733992764472,0.5203857421875,0.51068115234375,0.385498046875,-0.56549072265625,27.794932588160968,78.1772970748026,-72.02014770550257,0.4982784536972304,,,,3,0,3,3
1788939203.6774137,4465202254.0,-9.578125,0.953125,1.8828125,-0.013671875,0.10546875,-0.01953125,26.8125,-6.875,-34.6875,26.8125,-6.875,-34.6875,0.027636443252730257,-0.6324294279282971,0.08734886609919779,0.769181006841569,28.278361736889448,77.88639428608948,-161.10149473153072,0.5203857421875,0.51068115234375,0.385498046875,-0.56549072265625,27.794932588160968,78.1772970748026,-72.02014770550257,0.4779549246695184,,,,3,0,2,3
1788939203.6774137,4465206407.0,-9.69921875,0.953125,1.84375,-0.013671875,0.10546875,-0.01953125,26.8125,-6.875,-34.6875,26.8125,-6.875,-34.6875,0.027643023729872193,-0.6326063536426892,0.08710508180471242,0.7690629163428471,28.225657429431404,77.91658433310513,-161.134544165964,0.5203857421875,0.51068115234375,0.385498046875,-0.56549072265625,27.794932588160968,78.1772970748026,-72.02014770550257,0.4502111032067814,,,,3,0,2,3
1788939203.6774137,4465210514.0,-9.65625,0.953125,1.84375,0.0078125,0.11328125,-0.02734375,26.8125,-6.875,-34.6875,26.8125,-6.875,-34.6875,0.02768440005424318,-0.6327851017059506,0.08689115983171176,0.7689385641231206,28.174877975122488,77.9475310538402,-161.17095006989524,0.5201416015625,0.51092529296875,0.3858642578125,-0.56524658203125,27.879401053345898,78.2388029824497,-71.928757384312,0.4291004134253828,,,,3,0,2,3
1788939203.6774137,4465214296.0,-9.7265625,0.875,1.84375,0.017578125,0.119140625,-0.03125,27.375,-6.5625,-35.3125,27.375,-6.5625,-35.3125,0.027759641999298278,-0.6329695588064657,0.08670204940507173,0.7688053684316853,28.12529593779718,77.97985120213323,-161.21094510717037,0.5201416015625,0.51092529296875,0.3858642578125,-0.56524658203125,27.879401053345898,78.2388029824497,-71.928757384312,0.4000054253446391,,,,3,0,2,3
1788939203.6933155,4465217803.0,-9.73046875,0.9140625,1.8046875,0.021484375,0.125,-0.041015625,27.375,-6.5625,-35.3125,27.375,-6.5625,-35.3125,0.027835251105621326,-0.6331621913883845,0.08651864783782362,0.7686646614541743,28.080038614848824,78.01316285715814,-161.24710499851443,0.519775390625,0.51123046875,0.38623046875,-0.5650634765625,27.95432121822573,78.31094134212786,-71.86297302011592,0.2854648094969286,,,,3,0,2,3
1788939203.6933155,4465222262.0,-9.8046875,0.953125,1.8046875,0.033203125,0.130859375,-0.056640625,26.5625,-7.1875,-36.5,26.5625,-7.1875,-36.5,0.027959136351820575,-0.6334333633135572,0.08628420925796418,0.7684630740435504,28.02042163858835,78.06010360793464,-161.29728405577055,0.519775390625,0.51123046875,0.38623046875,-0.5650634765625,27.95432121822573,78.31094134212786,-71.86297302011592,0.22237760737291637,,,,3,0,2,3
1788939203.6933155,4465225539.0,-9.8046875,0.98828125,1.765625,0.033203125,0.130859375,-0.056640625,26.5625,-7.1875,-36.5,26.5625,-7.1875,-36.5,0.028026281909564934,-0.6336556563116772,0.08612367527910815,0.7682953529099091,27.995209221431857,78.09662722463209,-161.3145523761413,0.519775390625,0.51123046875,0.38623046875,-0.5650634765625,27.95432121822573,78.31094134212786,-71.86297302011592,0.170764869627018,,,,3,0,2,3
1788939203.6933155,4465230421.0,-9.765625,0.98828125,1.73046875,0.048828125,0.125,-0.068359375,26.5625,-7.1875,-36.5,26.5625,-7.1875,-36.5,0.02816734346842693,-0.6339968256502768,0.08591627040976697,0.7680319135987644,27.960691630386396,78.15309664110787,-161.343169362484,0.519287109375,0.5115966796875,0.38665771484375,-0.56494140625,28.014896481843753,78.41191090818009,-71.84304784978862,0.0,,,,3,0,2,3
1788939203.7093775,4465234104.0,-9.69921875,1.06640625,1.765625,0.052734375,0.111328125,-0.080078125,26.5625,-8.25,-34.5625,26.5625,-8.25,-34.5625,0.02827191843422524,-0.6341716747103978,0.08607281205495039,0.7678661710532709,28.0430489187088,78.17689329581084,-161.28195283540214,0.519287109375,0.5115966796875,0.38665771484375,-0.56494140625,28.014896481843753,78.41191090818009,-71.84304784978862,0.0,,,,3,0,2,3
1788939203.7093775,4465238010.0,-9.7265625,1.06640625,1.8046875,0.03515625,0.109375,-0.091796875,26.5625,-8.25,-34.5625,26.5625,-8.25,-34.5625,0.02837724932721218,-0.6343318249795072,0.08620316948359942,0.7677153646435448,28.110272417272594,78.1993291389718,-161.23380310878278,0.5186767578125,0.51190185546875,0.38702392578125,-0.56494140625,27.99264359271803,78.48421405240147,-71.88125249517316,0.0,,,,3,0,2,3
1788939203.7074244,4465241364.0,-9.69921875,1.06640625,1.765625,0.03515625,0.109375,-0.091796875,26.5625,-8.25,-34.5625,26.5625,-8.25,-34.5625,0.02846725113731371,-0.634486061101685,0.086311904099668,0.7675723477894728,28.171772110896,78.22093311315233,-161.1883639440476,0.5186767578125,0.51190185546875,0.38702392578125,-0.56494140625,27.99264359271803,78.48421405240147,-71.88125249517316,0.0,,,,3,0,2,3
1788939203.7093775,4465245746.0,-9.66015625,1.02734375,1.8046875,0.015625,0.107421875,-0.103515625,24.6875,-5.4375,-29.375,24.6875,-5.4375,-29.375,0.028606387773615512,-0.6346745839794407,0.08599751206453278,0.7674465941990882,28.049313777354993,78.25911369150718,-161.2961771612706,0.5186767578125,0.51190185546875,0.38702392578125,-0.56494140625,27.99264359271803,78.48421405240147,-71.88125249517316,0.0,,,,3,0,3,3
1788939203.725341,4465249653.0,-9.66015625,1.02734375,1.765625,0.00390625,0.11328125,-0.11328125,24.6875,-5.4375,-29.375,24.6875,-5.4375,-29.375,0.02872232175252774,-0.6348722150797942,0.08568203858353446,0.7673140732561795,27.93568265318458,78.29772130862307,-161.3931772107383,0.5181884765625,0.51202392578125,0.3875732421875,-0.56494140625,27.888316926814596,78.57909999884441,-72.00633566813336,0.0,,,,3,0,3,3
1788939203.725341,4465253635.0,-9.62109375,1.02734375,1.8046875,-0.005859375,0.1015625,-0.11328125,23.375,-5.875,-29.625,23.375,-5.875,-29.625,0.0287916184852397,-0.6350053121146477,0.08539202483248626,0.7672336660927929,27.828664146448606,78.32524246817297,-161.48192867991617,0.5181884765625,0.51202392578125,0.3875732421875,-0.56494140625,27.888316926814596,78.57909999884441,-72.00633566813336,0.0,,,,3,0,3,3
1788939203.725341,4465257342.0,-9.58203125,0.953125,1.8046875,-0.01953125,0.10546875,-0.109375,23.375,-5.875,-29.625,23.375,-5.875,-29.625,0.02888624364978227,-0.6351391372262074,0.08508556914525521,0.7671533791977861,27.7062927020388,78.35410715265947,-161.58674980370574,0.5177001953125,0.5120849609375,0.38818359375,-0.56488037109375,27.756635342690036,78.65455430946244,-72.11457209585456,0.0,,,,3,0,3,3
1788939203.725341,4465261695.0,-9.58203125,1.02734375,1.73046875,-0.01953125,0.10546875,-0.109375,23.375,-5.875,-29.625,23.375,-5.875,-29.625,0.028880182955294265,-0.6353575801555384,0.08474611681582994,0.7670102841918126,27.6258600737567,78.39182877491068,-161.63863713337054,0.5177001953125,0.5120849609375,0.38818359375,-0.56488037109375,27.756635342690036,78.65455430946244,-72.11457209585456,0.0,,,,3,0,3,3
1788939203.7425017,4465264601.0,-9.58203125,1.02734375,1.69140625,-0.005859375,0.103515625,-0.111328125,23.25,-6.6875,-28.75,23.25,-6.6875,-28.75,0.028934374340875722,-0.6355058776235903,0.08476424267906925,0.766883370957029,27.658549385450424,78.41360833777284,-161.6116777663962,0.5177001953125,0.5120849609375,0.38818359375,-0.56488037109375,27.756635342690036,78.65455430946244,-72.11457209585456,0.0,,,,3,0,3,3
1788939203.745632,4465269384.0,-9.54296875,1.02734375,1.73046875,-0.0234375,0.099609375,-0.109375,23.25,-6.6875,-28.75,23.25,-6.6875,-28.75,0.028984248881469582,-0.6356983013713159,0.08477968710511007,0.7667202798966258,27.70429769984107,78.44134973516404,-161.57103874095245,0.51727294921875,0.5120849609375,0.3887939453125,-0.5648193359375,27.606055266583972,78.72385535947247,-72.23527621632093,0.4483575111379963,,,,3,0,3,3
1788939203.745632,4465273167.0,-9.54296875,1.02734375,1.765625,-0.03125,0.091796875,-0.095703125,23.1875,-6.25,-29.0625,23.1875,-6.25,-29.0625,0.02893736711305434,-0.6357837767674133,0.08470064295535709,0.7666599109558797,27.710200248969308,78.45330400844492,-161.55474884120216,0.51727294921875,0.5120849609375,0.3887939453125,-0.5648193359375,27.606055266583972,78.72385535947247,-72.23527621632093,0.44199793142478794,,,,3,0,3,3
1788939203.745632,4465277120.0,-9.54296875,1.02734375,1.8046875,-0.03125,0.091796875,-0.095703125,23.1875,-6.25,-29.0625,23.1875,-6.25,-29.0625,0.02892599558451415,-0.6358498782667734,0.08459418167232403,0.766617273164885,27.687257051306677,78.46448616374603,-161.56797266110476,0.51727294921875,0.5120849609375,0.3887939453125,-0.5648193359375,27.606055266583972,78.72385535947247,-72.23527621632093,0.4342840711258357,,,,3,0,3,3
1788939203.75743,4465280826.0,-9.54296875,1.02734375,1.765625,-0.052734375,0.08984375,-0.091796875,23.1875,-6.25,-29.0625,23.1875,-6.25,-29.0625,0.02885357069304249,-0.6359298742884992,0.08449523961479916,0.7665645575736676,27.69134245708808,78.4752763176506,-161.5497973805908,0.51690673828125,0.5120849609375,0.389404296875,-0.56475830078125,27.470006364543632,78.80729413539557,-72.3642729746512,0.0,,,,3,0,3,3
1788939203.761574,4465284809.0,-9.54296875,0.98828125,1.69140625,-0.05859375,0.09375,-0.08984375,23.4375,-6.3125,-29.3125,23.4375,-6.3125,-29.3125,0.02874798743245647,-0.6361398943492258,0.08438161463596491,0.7664067661153355,27.737582141706817,78.50308609097019,-161.48542119332592,0.51690673828125,0.5120849609375,0.389404296875,-0.56475830078125,27.470006364543632,78.80729413539557,-72.3642729746512,0.0,,,,3,0,3,3
1788939203.761574,4465288515.0,-9.58203125,1.02734375,1.69140625,-0.0625,0.09375,-0.08203125,23.4375,-6.3125,-29.3125,23.4375,-6.3125,-29.3125,0.02863812510480591,-0.6363169781721788,0.08430694534449003,0.7662720796472944,27.792695687716513,78.5253029981602,-161.4150511089833,0.51666259765625,0.511962890625,0.39007568359375,-0.5645751953125,27.317891341361964,78.86003282552244,-72.44830175008131,0.8442141010099754,,,,3,0,3,3
1788939203.761574,4465292298.0,-9.62109375,0.953125,1.57421875,-0.068359375,0.09765625,-0.08984375,24.0625,-5.375,-29.125,24.0625,-5.375,-29.125,0.02864940349088033,-0.6365576011330891,0.0839578731808182,0.7661101145724792,27.708478677923942,78.56698550754308,-161.47133502629802,0.51666259765625,0.511962890625,0.39007568359375,-0.5645751953125,27.317891341361964,78.86003282552244,-72.44830175008131,0.8247120862706495,,,,3,0,3,3
1788939203.761574,4465296951.0,-9.578125,0.875,1.5,-0.068359375,0.09765625,-0.08984375,24.0625,-5.375,-29.125,24.0625,-5.375,-29.125,0.028695452692244713,-0.6368628117790556,0.08354637536418841,0.7658996886872123,27.604113428698426,78.62021788743122,-161.54541970839932,0.51666259765625,0.511962890625,0.39007568359375,-0.5645751953125,27.317891341361964,78.86003282552244,-72.44830175008131,0.8034395300802528,,,,3,0,3,3
1788939203.7750313,4465300557.0,-9.54296875,0.8359375,1.57421875,-0.072265625,0.083984375,-0.0859375,24.0625,-5.375,-29.125,24.0625,-5.375,-29.125,0.0287353533427594,-0.6370578631692608,0.08319388211061068,0.7657743377926998,27.49454296167539,78.65671199394875,-161.62916508442626,0.51641845703125,0.51190185546875,0.39080810546875,-0.56439208984375,27.192871955985122,78.95222915534302,-72.55130065344434,0.06360825015606707,,,,3,0,3,3
1788939203.7750313,4465304340.0,-9.578125,0.875,1.61328125,-0.0703125,0.06640625,-0.072265625,27.5625,-5.375,-33.8125,27.5625,-5.375,-33.8125,0.028745151516354497,-0.6372082629105239,0.08282402987134341,0.7656889224866226,27.37377540440318,78.68642185235923,-161.72028726817572,0.51641845703125,0.51190185546875,0.39080810546875,-0.56439208984375,27.192871955985122,78.95222915534302,-72.55130065344434,0.0,,,,3,0,3,3
1788939203.7750313,4465307846.0,-9.6171875,0.8359375,1.5390625,-0.052734375,0.060546875,-0.0625,27.5625,-5.375,-33.8125,27.5625,-5.375,-33.8125,0.028769326428244084,-0.6373560757900906,0.08252595687308412,0.7655971688508932,27.27839222994455,78.71456762043643,-161.7930771642864,0.51629638671875,0.51171875,0.391357421875,-0.56427001953125,27.03538602065729,78.99422424307149,-72.65703842821094,0.5279739818323881,,,,3,0,3,3
1788939203.7890146,4465312406.0,-9.69921875,0.8359375,1.5,-0.046875,0.0546875,-0.05078125,27.375,-7.0,-35.3125,27.375,-7.0,-35.3125,0.028795963199222997,-0.6375877582609102,0.08227851829452947,0.7654298716711498,27.228489320368514,78.753151694363,-161.8246440615977,0.51629638671875,0.51171875,0.391357421875,-0.56427001953125,27.03538602065729,78.99422424307149,-72.65703842821094,0.5072756979759822,,,,3,0,2,3
1788939203.7909822,4465315506.0,-9.76953125,0.8359375,1.4609375,-0.046875,0.0546875,-0.05078125,27.375,-7.0,-35.3125,27.375,-7.0,-35.3125,0.02881246835013386,-0.6377469198818504,0.08212285763994942,0.7653133633367665,27.200974861907643,78.77926677670337,-161.84058995387983,0.51629638671875,0.51171875,0.391357421875,-0.56427001953125,27.03538602065729,78.99422424307149,-72.65703842821094,0.4951850480115065,,,,3,0,2,3
1788939203.7909822,4465320089.0,-9.80859375,0.796875,1.421875,-0.04296875,0.044921875,-0.046875,27.375,-7.0,-35.3125,27.375,-7.0,-35.3125,0.028848120622571173,-0.6379632442176107,0.08190404027845911,0.7651551562591418,27.155781171062785,78.81538834413843,-161.870544523716,0.51611328125,0.51165771484375,0.39178466796875,-0.56414794921875,26.93893299278974,79.02545023247116,-72.70545424769388,0.9843968718117708,,,,3,0,2,3
1788939203.798747,4465323471.0,-9.84765625,0.796875,1.5,-0.03125,0.03125,-0.041015625,26.25,-6.8125,-34.4375,26.25,-6.8125,-34.4375,0.028886615821038644,-0.6381009943555268,0.08174748585918501,0.7650555750954291,27.11393410595912,78.83933259963523,-161.90256515931284,0.51611328125,0.51165771484375,0.39178466796875,-0.56414794921875,26.93893299278974,79.02545023247116,-72.70545424769388,0.9783512965419308,,,,3,0,2,3
1788939203.8077748,4465327954.0,-9.8828125,0.8359375,1.61328125,-0.01953125,0.025390625,-0.044921875,26.25,-6.8125,-34.4375,26.25,-6.8125,-34.4375,0.028959344099674662,-0.6382624058671209,0.08151040459040461,0.764943469538462,27.03154529369503,78.86957524617344,-161.97129951082573,0.5159912109375,0.5115966796875,0.39208984375,-0.56414794921875,26.84389266774894,79.07081407775604,-72.80743780358083,0.5399274700505046,,,,3,0,2,3
1788939203.8037817,4465332184.0,-9.92578125,0.76171875,1.421875,-0.01953125,0.025390625,-0.044921875,26.25,-6.8125,-34.4375,26.25,-6.8125,-34.4375,0.02903249977575249,-0.638427436867882,0.08134572350353217,0.7648204986000079,26.98190292128602,78.8986479292944,-162.01324502725714,0.5159912109375,0.5115966796875,0.39208984375,-0.56414794921875,26.84389266774894,79.07081407775604,-72.80743780358083,0.527137629427008,,,,3,0,2,3
1788939203.8077748,4465335114.0,-9.96484375,0.72265625,1.30859375,-0.001953125,0.025390625,-0.0546875,26.75,-5.0625,-34.875,26.75,-5.0625,-34.875,0.029102242958727837,-0.638528722530536,0.08118665194256815,0.7647501928765035,26.917000320162654,78.91867268751554,-162.07070013366183,0.5159912109375,0.5115966796875,0.39208984375,-0.56414794921875,26.84389266774894,79.07081407775604,-72.80743780358083,0.5178694805823336,,,,3,0,2,3
1788939203.8077748,4465339020.0,-9.96484375,0.76171875,1.34375,0.01171875,0.01171875,-0.044921875,26.75,-5.0625,-34.875,26.75,-5.0625,-34.875,0.029194387279643453,-0.6386397419894514,0.0810031904406736,0.7646734275764034,26.8361817449506,78.94135230044192,-162.14388919370973,0.515869140625,0.51153564453125,0.39227294921875,-0.564208984375,26.746540279750075,79.09706694993822,-72.91124019733697,0.0,,,,3,0,2,3
1788939203.8077748,4465343579.0,-9.96484375,0.796875,1.3828125,0.037109375,-0.00390625,-0.041015625,23.125,-5.8125,-29.3125,23.125,-5.8125,-29.3125,0.029339566860806215,-0.6387649917630807,0.08095086067997627,0.7645687891023951,26.799739604058143,78.96477166856184,-162.18773528321094,0.515869140625,0.51153564453125,0.39227294921875,-0.564208984375,26.746540279750075,79.09706694993822,-72.91124019733697,0.0,,,,3,0,3,3
1788939203.824405,4465347385.0,-9.8828125,0.796875,1.421875,0.052734375,-0.015625,-0.0390625,23.125,-5.8125,-29.3125,23.125,-5.8125,-29.3125,0.029479225011593446,-0.6388507997258489,0.08092481723222461,0.764494476721899,26.7652651808521,78.98194809939065,-162.2313567000127,0.51568603515625,0.51153564453125,0.392333984375,-0.56439208984375,26.651291762776417,79.1294131411339,-73.05167216849081,0.0,,,,3,0,3,3
1788939203.824405,4465351539.0,-9.84375,0.796875,1.421875,0.052734375,-0.015625,-0.0390625,23.125,-5.8125,-29.3125,23.125,-5.8125,-29.3125,0.029630427017893937,-0.6389445055448997,0.0808966088384124,0.764413301367242,26.728042353133908,79.00065355326569,-162.27848075934008,0.51568603515625,0.51153564453125,0.392333984375,-0.56439208984375,26.651291762776417,79.1294131411339,-73.05167216849081,0.0,,,,3,0,3,3
1788939203.829287,4465355321.0,-9.80859375,0.8359375,1.3828125,0.044921875,-0.033203125,-0.041015625,24.5625,-6.6875,-28.5625,24.5625,-6.6875,-28.5625,0.02975096157674043,-0.6389929368464247,0.08097076353545551,0.7643602831113909,26.734026681308155,79.00972633308831,-162.28832502805153,0.51568603515625,0.51153564453125,0.392333984375,-0.56439208984375,26.651291762776417,79.1294131411339,-73.05167216849081,0.0,,,,3,0,3,3
1788939203.829287,4465359328.0,-9.765625,0.875,1.421875,0.0390625,-0.044921875,-0.033203125,24.5625,-6.6875,-28.5625,24.5625,-6.6875,-28.5625,0.02984903387343454,-0.639018965232782,0.08106959558340739,0.7643242230373116,26.75228493304521,79.01438149363908,-162.28610980565898,0.5155029296875,0.511474609375,0.39227294921875,-0.5645751953125,26.533181753209583,79.10265198431306,-73.15200343812708,0.5395588241659672,,,,3,0,3,3
1788939203.8409762,4465363010.0,-9.69921875,0.8359375,1.4609375,0.021484375,-0.0546875,-0.0390625,24.1875,-7.6875,-29.0625,24.1875,-7.6875,-29.0625,0.02993966842281563,-0.6390029382705895,0.08118480570433406,0.7643218487384976,26.768136722263147,79.012595726233,-162.28708019023483,0.5155029296875,0.511474609375,0.39227294921875,-0.5645751953125,26.533181753209583,79.10265198431306,-73.15200343812708,0.5371557663926079,,,,3,0,3,3
1788939203.8409762,4465366964.0,-9.6171875,0.875,1.5390625,0.021484375,-0.0546875,-0.0390625,24.1875,-7.6875,-29.0625,24.1875,-7.6875,-29.0625,0.030025867974968697,-0.6389625439087545,0.08133562592766516,0.7643362026549296,26.794370936625473,79.00647918061769,-162.28024717115852,0.5155029296875,0.511474609375,0.39227294921875,-0.5645751953125,26.533181753209583,79.10265198431306,-73.15200343812708,0.5364882443750346,,,,3,0,3,3
1788939203.8409762,4465370870.0,-9.578125,0.8359375,1.5390625,0.01953125,-0.060546875,-0.033203125,24.1875,-7.6875,-29.0625,24.1875,-7.6875,-29.0625,0.030110802120349313,-0.6389151895975547,0.08148661248904572,0.764356364585427,26.819060532319213,78.99935570540859,-162.27487721715417,0.5155029296875,0.51129150390625,0.39215087890625,-0.5648193359375,26.39102002994694,79.07753929429511,-73.30190201702233,0.626345181357393,,,,3,0,3,3
1788939203.8409762,4465374453.0,-9.54296875,0.8359375,1.57421875,0.017578125,-0.0625,-0.029296875,24.25,-9.125,-28.8125,24.25,-9.125,-28.8125,0.030182017979341225,-0.6388477924850864,0.08164365050276538,0.7643931306338441,26.845286624317698,78.9888607454686,-162.2673710974967,0.5155029296875,0.51129150390625,0.39215087890625,-0.5648193359375,26.39102002994694,79.07753929429511,-73.30190201702233,0.6275692507551136,,,,3,0,3,3
1788939203.8409762,4465378559.0,-9.4609375,0.875,1.5390625,0.009765625,-0.068359375,-0.005859375,24.25,-9.125,-28.8125,24.25,-9.125,-28.8125,0.03020995588869824,-0.6387604250838508,0.08184025768601215,0.7644440137340266,26.8982145319958,78.97323654169092,-162.23290046559106,0.51556396484375,0.5111083984375,0.39202880859375,-0.5650634765625,26.26641078751795,79.06687679149277,-73.45718707820463,0.0,,,,3,0,3,3
1788939203.8576233,4465382142.0,-9.421875,0.8359375,1.57421875,0.005859375,-0.056640625,0.013671875,24.0625,-5.375,-29.1875,24.0625,-5.375,-29.1875,0.030200550461129603,-0.6387254845989225,0.08168975216511441,0.7644896771486966,26.823750680145743,78.97152394807132,-162.29431856058187,0.51556396484375,0.5111083984375,0.39202880859375,-0.5650634765625,26.26641078751795,79.06687679149277,-73.45718707820463,0.0,,,,3,0,3,3
1788939203.8620226,4465386695.0,-9.38671875,0.8359375,1.57421875,0.005859375,-0.056640625,0.013671875,24.0625,-5.375,-29.1875,24.0625,-5.375,-29.1875,0.030184996660747605,-0.638678851382478,0.08149751593267836,0.7645497666405713,26.729310206182507,78.96892091284744,-162.3718102618294,0.51556396484375,0.5111083984375,0.39202880859375,-0.5650634765625,26.26641078751795,79.06687679149277,-73.45718707820463,0.0,,,,3,0,3,3
1788939203.8620226,4465390601.0,-9.42578125,0.8359375,1.61328125,-0.0078125,-0.0625,0.0390625,24.0625,-5.375,-29.1875,24.0625,-5.375,-29.1875,0.030118664795046955,-0.6386066382039379,0.0813377729387214,0.7646297106222052,26.659487148209113,78.96031528903288,-162.4232375641833,0.5157470703125,0.51092529296875,0.39190673828125,-0.565185546875,26.201988609770027,79.04739556927322,-73.53311594889226,0.0,,,,3,0,3,3
1788939203.8715699,4465394184.0,-9.3828125,0.8359375,1.61328125,0.0,-0.056640625,0.0625,23.75,-6.3125,-29.25,23.75,-6.3125,-29.25,0.0300058913748075,-0.6385761280363867,0.0815298947770219,0.7646391642091759,26.775279051067333,78.94793470621892,-162.31402060649262,0.5157470703125,0.51092529296875,0.39190673828125,-0.565185546875,26.201988609770027,79.04739556927322,-73.53311594889226,0.0,,,,3,0,3,3
1788939203.874897,4465398667.0,-9.42578125,0.8359375,1.65234375,-0.001953125,-0.052734375,0.078125,23.75,-6.3125,-29.25,23.75,-6.3125,-29.25,0.029843688790950156,-0.638399405683293,0.08183296696713427,0.7647606936682371,26.914455725737053,78.9110990163285,-162.18663200069344,0.51605224609375,0.5108642578125,0.39166259765625,-0.56512451171875,26.288921308407208,79.0040158989081,-73.43262701131103,0.0,,,,3,0,3,3
1788939203.8729293,4465402250.0,-9.42578125,0.8359375,1.61328125,0.00390625,-0.046875,0.095703125,27.125,-5.0,-34.5,27.125,-5.0,-34.5,0.029718309398269287,-0.6383397868221645,0.08176809110854238,0.7648222786522417,26.91084992359236,78.90009984506379,-162.17478522963074,0.51605224609375,0.5108642578125,0.39166259765625,-0.56512451171875,26.288921308407208,79.0040158989081,-73.43262701131103,0.0,,,,3,0,3,3
1788939203.874897,4465406226.0,-9.46484375,0.796875,1.61328125,0.00390625,-0.046875,0.095703125,27.125,-5.0,-34.5,27.125,-5.0,-34.5,0.02958979738383235,-0.6382761338523386,0.0816959484477578,0.7648880917183354,26.903897376078962,78.88860659985995,-162.1654396918111,0.51605224609375,0.5108642578125,0.39166259765625,-0.56512451171875,26.288921308407208,79.0040158989081,-73.43262701131103,0.0,,,,3,0,3,3
1788939203.874897,4465410132.0,-9.50390625,0.796875,1.61328125,0.01171875,-0.041015625,0.103515625,27.125,-5.0,-34.5,27.125,-5.0,-34.5,0.02946154233719194,-0.6382230339295893,0.08164692111240404,0.7649425839614951,26.910211100324933,78.8780514907532,-162.14472933906822,0.51641845703125,0.51092529296875,0.39129638671875,-0.56500244140625,26.48308087760265,78.95990841894401,-73.24180881215165,0.0,,,,3,0,3,3
1788939203.8908544,4465413515.0,-9.58203125,0.796875,1.61328125,0.015625,-0.04296875,0.109375,25.75,-5.5,-35.0625,25.75,-5.5,-35.0625,0.029346224137126467,-0.6381803108522333,0.08161654306392674,0.7649859017444275,26.92341995913468,78.86894061853863,-162.1196922112106,0.51641845703125,0.51092529296875,0.39129638671875,-0.56500244140625,26.48308087760265,78.95990841894401,-73.24180881215165,0.0,,,,3,0,3,3
1788939203.8864272,4465417798.0,-9.66015625,0.796875,1.65234375,0.029296875,-0.037109375,0.11328125,25.75,-5.5,-35.0625,25.75,-5.5,-35.0625,0.029214057239397233,-0.6381253778338306,0.08160510368892487,0.7650380043344016,26.947156917051643,78.85713695503777,-162.0843183786044,0.5167236328125,0.51104736328125,0.390869140625,-0.5648193359375,26.710733950217772,78.88478633395471,-72.97624319003613,0.5401250365805219,,,,3,0,3,3
1788939203.8886409,4465421828.0,-9.7265625,0.8359375,1.65234375,0.029296875,-0.037109375,0.11328125,25.75,-5.5,-35.0625,25.75,-5.5,-35.0625,0.02908032498325877,-0.6380784673186234,0.08159473901523803,0.7650833306302129,26.97418174792927,78.84636149727126,-162.04560863897836,0.5167236328125,0.51104736328125,0.390869140625,-0.5648193359375,26.710733950217772,78.88478633395471,-72.97624319003613,0.5463998762681059,,,,3,0,3,3
1788939203.8908544,4465425434.0,-9.6953125,0.8359375,1.69140625,0.04296875,-0.0390625,0.119140625,26.1875,-6.375,-34.75,26.1875,-6.375,-34.75,0.02897835215681365,-0.6380210068287225,0.08161049005326347,0.7651334379471368,26.998895767868397,78.83460486352541,-162.01394371155234,0.5167236328125,0.51104736328125,0.390869140625,-0.5648193359375,26.710733950217772,78.88478633395471,-72.97624319003613,0.5516875309166706,,,,3,0,3,3
1788939203.9072263,4465429540.0,-9.76953125,0.8359375,1.65234375,0.04296875,-0.03515625,0.1171875,26.1875,-6.375,-34.75,26.1875,-6.375,-34.75,0.028867622019732274,-0.6379959847421373,0.08163423915841153,0.7651559545928291,27.03951429922471,78.82683707032962,-161.9662815238826,0.51702880859375,0.51129150390625,0.39031982421875,-0.564697265625,27.00147172872936,78.83186170124655,-72.70632969625598,0.5626381543939863,,,,3,0,3,3
1788939203.907546,4465433423.0,-9.80859375,0.8359375,1.61328125,0.05078125,-0.0390625,0.119140625,26.125,-6.9375,-35.1875,26.125,-6.9375,-35.1875,0.02878068766845087,-0.6380105460463374,0.08173308817958368,0.7651365351671647,27.116824656345067,78.82358502926327,-161.88996926274936,0.51702880859375,0.51129150390625,0.39031982421875,-0.564697265625,27.00147172872936,78.83186170124655,-72.70632969625598,0.5671678333362202,,,,3,0,3,3
1788939203.907546,4465437029.0,-9.84375,0.8359375,1.61328125,0.048828125,-0.037109375,0.115234375,26.125,-6.9375,-35.1875,26.125,-6.9375,-35.1875,0.028704961344887748,-0.6380273065365415,0.08181803368504577,0.7651163249283258,27.184819081240704,78.82132593983259,-161.8227451582443,0.517333984375,0.51153564453125,0.38983154296875,-0.5645751953125,27.28452514133367,78.79756022714233,-72.46049775095963,0.0,,,,3,0,3,3
1788939203.907546,4465441382.0,-9.84375,0.8359375,1.65234375,0.048828125,-0.037109375,0.115234375,26.125,-6.9375,-35.1875,26.125,-6.9375,-35.1875,0.028621554995563476,-0.6380292838722984,0.08188501207613348,0.7651106353386611,27.243089673207347,78.81717477141255,-161.7631649332535,0.517333984375,0.51153564453125,0.38983154296875,-0.5645751953125,27.28452514133367,78.79756022714233,-72.46049775095963,0.0,,,,3,0,3,3
1788939203.907546,4465445265.0,-9.92578125,0.8359375,1.5390625,0.060546875,-0.041015625,0.111328125,23.75,-6.875,-29.6875,23.75,-6.875,-29.6875,0.028560778470250108,-0.6380400401041054,0.08217567169960897,0.7650727730992934,27.3949984754656,78.80973052727911,-161.63008786976914,0.517333984375,0.51153564453125,0.38983154296875,-0.5645751953125,27.28452514133367,78.79756022714233,-72.46049775095963,0.0,,,,3,0,3,3
1788939203.9238431,4465449071.0,-9.96484375,0.875,1.57421875,0.068359375,-0.046875,0.109375,23.75,-6.875,-29.6875,23.75,-6.875,-29.6875,0.028504861438873902,-0.6380366856674244,0.08248670610919313,0.7650441843005764,27.549888373736707,78.79997061614377,-161.4961091047734,0.517578125,0.51177978515625,0.3892822265625,-0.56451416015625,27.541866814381958,78.74897819836926,-72.23407192507226,0.0,,,,3,0,3,3
1788939203.9238431,4465452854.0,-9.9609375,0.875,1.65234375,0.08203125,-0.048828125,0.099609375,24.5,-5.8125,-28.8125,24.5,-5.8125,-28.8125,0.02848983738487609,-0.6380264456122592,0.08257871171862956,0.7650433584026867,27.59240025186296,78.79585394619644,-161.45991638937014,0.517578125,0.51177978515625,0.3892822265625,-0.56451416015625,27.541866814381958,78.74897819836926,-72.23407192507226,0.0,,,,3,0,3,3
1788939203.9238431,4465456807.0,-9.8828125,0.875,1.65234375,0.08203125,-0.048828125,0.099609375,24.5,-5.8125,-28.8125,24.5,-5.8125,-28.8125,0.028472319844796142,-0.6380100759501308,0.08266546337978238,0.7650482933468775,27.63158109419223,78.79092971077607,-161.42642831705854,0.517578125,0.51177978515625,0.3892822265625,-0.56451416015625,27.541866814381958,78.74897819836926,-72.23407192507226,0.0,,,,3,0,3,3
1788939203.9238431,4465460714.0,-9.8828125,0.875,1.65234375,0.078125,-0.060546875,0.09765625,24.5,-5.8125,-28.8125,24.5,-5.8125,-28.8125,0.028455784975777935,-0.63797615908667,0.08274134699611164,0.7650689892001252,27.66039045361024,78.78388619497193,-161.402520934409,0.517822265625,0.51202392578125,0.388671875,-0.56451416015625,27.789800353863257,78.70022109960836,-72.0332745006349,0.0,,,,3,0,3,3
1788939203.931845,4465464496.0,-9.84375,0.875,1.65234375,0.07421875,-0.076171875,0.091796875,24.125,-5.875,-29.1875,24.125,-5.875,-29.1875,0.028443943888469665,-0.6379206894093016,0.08279928588884683,0.7651094133102323,27.673288543484073,78.77447434910981,-161.39346112349108,0.517822265625,0.51202392578125,0.388671875,-0.56451416015625,27.789800353863257,78.70022109960836,-72.0332745006349,0.0,,,,3,0,3,3
1788939203.9408727,4465468203.0,-9.84375,0.9140625,1.61328125,0.078125,-0.07421875,0.095703125,24.125,-5.875,-29.1875,24.125,-5.875,-29.1875,0.02840375739223458,-0.6378907267101166,0.08291006595782585,0.7651238908216833,27.726437317707465,78.76631252249884,-161.3461417059696,0.51806640625,0.51214599609375,0.38812255859375,-0.56451416015625,27.964291974712744,78.62980195836772,-71.86399850611353,0.0,,,,3,0,3,3
1788939203.9408727,4465472962.0,-9.80859375,0.98828125,1.61328125,0.08984375,-0.078125,0.099609375,23.4375,-7.25,-29.4375,23.4375,-7.25,-29.4375,0.028341885313411377,-0.6377699264975598,0.08342022294647741,0.7651714349057593,27.934556550916096,78.73531093796151,-161.17487993652512,0.51806640625,0.51214599609375,0.38812255859375,-0.56451416015625,27.964291974712744,78.62980195836772,-71.86399850611353,0.0,,,,3,0,3,3
1788939203.9339066,4465476539.0,-9.76953125,1.02734375,1.61328125,0.08984375,-0.078125,0.099609375,23.4375,-7.25,-29.4375,23.4375,-7.25,-29.4375,0.028285460633422202,-0.6376746564576808,0.08380620995421229,0.7652107450901643,28.093386401828415,78.71092186975983,-161.04316121664286,0.51806640625,0.51214599609375,0.38812255859375,-0.56451416015625,27.964291974712744,78.62980195836772,-71.86399850611353,0.0,,,,3,0,3,3
1788939203.95339,4465480245.0,-9.73046875,1.02734375,1.69140625,0.09765625,-0.083984375,0.0859375,23.4375,-7.25,-29.4375,23.4375,-7.25,-29.4375,0.028252300517901285,-0.6375379481761381,0.08421855778264054,0.7652806064939959,28.24293253061131,78.68098974350418,-160.92482602364558,0.51824951171875,0.5123291015625,0.387451171875,-0.56463623046875,28.139686171026188,78.56547884501052,-71.73275328313477,0.0,,,,3,0,3,3
1788939203.9624453,4465484028.0,-9.62109375,0.98828125,1.765625,0.107421875,-0.08203125,0.08203125,24.0625,-7.0,-27.5625,24.0625,-7.0,-27.5625,0.028241388021891765,-0.6373574409529572,0.08464745973786773,0.7653840369542736,28.378466365069812,78.64541725824502,-160.82372090356577,0.51824951171875,0.5123291015625,0.387451171875,-0.56463623046875,28.139686171026188,78.56547884501052,-71.73275328313477,0.0,,,,3,0,3,3
1788939203.9624453,4465488310.0,-9.62109375,0.953125,1.69140625,0.107421875,-0.078125,0.078125,24.0625,-7.0,-27.5625,24.0625,-7.0,-27.5625,0.028250778324252598,-0.6372077229458488,0.08513344046611043,0.7654544458402759,28.54069942335509,78.61333210991444,-160.70221404938786,0.5184326171875,0.51251220703125,0.38677978515625,-0.5648193359375,28.301613183654545,78.5193908600212,-71.64683634299816,0.0,,,,3,0,3,3
1788939203.9722028,4465492093.0,-9.54296875,0.953125,1.73046875,0.1171875,-0.080078125,0.083984375,23.4375,-6.8125,-29.375,23.4375,-6.8125,-29.375,0.028249827935750288,-0.6370082898589304,0.08556429444669471,0.7655724246525868,28.666697828108394,78.57542755989448,-160.61164453712863,0.5184326171875,0.51251220703125,0.38677978515625,-0.5648193359375,28.301613183654545,78.5193908600212,-71.64683634299816,0.0,,,,3,0,3,3
1788939203.9741704,4465496170.0,-9.54296875,1.02734375,1.69140625,0.1171875,-0.080078125,0.083984375,23.4375,-6.8125,-29.375,23.4375,-6.8125,-29.375,0.028202073518561334,-0.6368479767322891,0.08603650027484291,0.7656546337623122,28.836822741172263,78.54010765256542,-160.47648616870535,0.5184326171875,0.51251220703125,0.38677978515625,-0.5648193359375,28.301613183654545,78.5193908600212,-71.64683634299816,0.0,,,,3,0,3,3
1788939203.9741704,4465499776.0,-9.54296875,0.98828125,1.73046875,0.125,-0.072265625,0.080078125,23.4375,-6.8125,-29.375,23.4375,-6.8125,-29.375,0.028191828671078084,-0.6366741412434791,0.08645206410470081,0.7657527664201388,28.965611436111796,78.50567695320446,-160.3810973184762,0.51849365234375,0.51275634765625,0.38604736328125,-0.56494140625,28.480100217681898,78.4301141201964,-71.48262685761682,0.806359069288752,,,,3,0,3,3
1788939203.9741704,4465504335.0,-9.58203125,1.02734375,1.73046875,0.12890625,-0.072265625,0.08203125,27.875,-6.375,-34.1875,27.875,-6.375,-34.1875,0.028199725859206548,-0.636512459520284,0.08658253051878657,0.7658721366820102,28.969790540234154,78.48070855454047,-160.38842977774004,0.51849365234375,0.51275634765625,0.38604736328125,-0.56494140625,28.480100217681898,78.4301141201964,-71.48262685761682,0.8041339681427466,,,,3,0,2,3
1788939203.9862485,4465507642.0,-9.578125,1.06640625,1.73046875,0.12109375,-0.07421875,0.072265625,27.875,-6.375,-34.1875,27.875,-6.375,-34.1875,0.02819058508316551,-0.6363932099686502,0.08666369575605282,0.7659623861890144,28.971250300865993,78.46213194439076,-160.39300887081495,0.5185546875,0.51300048828125,0.38531494140625,-0.565185546875,28.633656819241295,78.37705922880603,-71.40662528880802,0.5729700389576337,,,,3,0,2,3
1788939203.9884622,4465511671.0,-9.578125,1.10546875,1.8046875,0.12109375,-0.07421875,0.072265625,27.875,-6.375,-34.1875,27.875,-6.375,-34.1875,0.028173544858002827,-0.6362087914709469,0.08680266059175865,0.7661004654347909,28.9801878671631,78.43296575008917,-160.39427614119685,0.5185546875,0.51300048828125,0.38531494140625,-0.565185546875,28.633656819241295,78.37705922880603,-71.40662528880802,0.5686250991591056,,,,3,0,2,3
1788939203.9915583,4465515278.0,-9.58203125,1.14453125,1.765625,0.125,-0.068359375,0.0546875,27.0625,-6.0625,-35.25,27.0625,-6.0625,-35.25,0.028173451955868022,-0.6360804934161108,0.08689150092186218,0.7661969261018692,28.979317044953465,78.41330156576849,-160.40256266479093,0.5185546875,0.51300048828125,0.38531494140625,-0.565185546875,28.633656819241295,78.37705922880603,-71.40662528880802,0.5659306800199811,,,,3,0,2,3
1788939203.9915583,4465519184.0,-9.6171875,1.1796875,1.8046875,0.11328125,-0.06640625,0.048828125,27.0625,-6.0625,-35.25,27.0625,-6.0625,-35.25,0.02816037765300799,-0.6359325875966686,0.08697984341617698,0.7663101487011266,28.97649083520477,78.39051874988186,-160.41172965618307,0.5185546875,0.51324462890625,0.3846435546875,-0.5654296875,28.766311597503307,78.32889005095849,-71.34536696297978,0.4527540305449057,,,,3,0,2,3
1788939203.9915583,4465523167.0,-9.66015625,1.21875,1.8046875,0.1171875,-0.072265625,0.03515625,26.6875,-9.0,-36.0,26.6875,-9.0,-36.0,0.028198451240968085,-0.6357723459248683,0.08738117406425701,0.7663960476959366,29.086425759711588,78.36006299536697,-160.33795894197294,0.5185546875,0.51324462890625,0.3846435546875,-0.5654296875,28.766311597503307,78.32889005095849,-71.34536696297978,0.44674009687722055,,,,3,0,2,3
1788939204.0066867,4465527650.0,-9.69921875,1.1796875,1.8046875,0.10546875,-0.064453125,0.015625,26.6875,-9.0,-36.0,26.6875,-9.0,-36.0,0.028263796810865313,-0.6356110414105036,0.08778852679545164,0.766480878032827,29.189534923177387,78.33029368953108,-160.27373283930146,0.51849365234375,0.513427734375,0.38409423828125,-0.56573486328125,28.829874234345855,78.30168872873584,-71.36470068716486,0.0,,,,3,0,2,3
1788939204.0072212,4465531026.0,-9.65625,1.1796875,1.8046875,0.10546875,-0.064453125,0.015625,26.6875,-9.0,-36.0,26.6875,-9.0,-36.0,0.028311995951800128,-0.6354872666007125,0.08809413282688706,0.7665466643558363,29.266069187722827,78.30755183498106,-160.22630815918924,0.51849365234375,0.513427734375,0.38409423828125,-0.56573486328125,28.829874234345855,78.30168872873584,-71.36470068716486,0.0,,,,3,0,2,3
1788939204.0072212,4465535109.0,-9.66015625,1.14453125,1.8046875,0.099609375,-0.060546875,0.01953125,26.8125,-6.875,-34.6875,26.8125,-6.875,-34.6875,0.028304108014688193,-0.6353316006409868,0.08816368354760282,0.7666679852450946,29.251023874210045,78.2844068123788,-160.24659039151152,0.51849365234375,0.513427734375,0.38409423828125,-0.56573486328125,28.829874234345855,78.30168872873584,-71.36470068716486,0.0,,,,3,0,2,3
1788939204.0165346,4465538915.0,-9.65625,1.1796875,1.8046875,0.1015625,-0.060546875,-0.001953125,26.8125,-6.875,-34.6875,26.8125,-6.875,-34.6875,0.028309790144661222,-0.6351894083166987,0.08822954774113567,0.7667780110629426,29.234286435236537,78.26367886828677,-160.26935256709743,0.51837158203125,0.5135498046875,0.38360595703125,-0.5660400390625,28.840949144050438,78.25981890792575,-71.4017087230366,0.04744482222183477,,,,3,0,2,3
1788939204.0185423,4465542498.0,-9.69921875,1.1796875,1.8046875,0.087890625,-0.056640625,-0.005859375,23.1875,-7.6875,-29.1875,23.1875,-7.6875,-29.1875,0.02837646218194083,-0.6350825827156991,0.08851073918295034,0.7668316233531856,29.299519298902812,78.24453916124047,-160.23271720095806,0.51837158203125,0.5135498046875,0.38360595703125,-0.5660400390625,28.840949144050438,78.25981890792575,-71.4017087230366,0.0,,,,3,0,3,3
1788939204.022981,4465546651.0,-9.69921875,1.1796875,1.8046875,0.087890625,-0.056640625,-0.005859375,23.1875,-7.6875,-29.1875,23.1875,-7.6875,-29.1875,0.02845360232873659,-0.6349589884017656,0.08883666155577034,0.7668934235771945,29.37506049502597,78.22237993580791,-160.19031351464668,0.51837158203125,0.5135498046875,0.38360595703125,-0.5660400390625,28.840949144050438,78.25981890792575,-71.4017087230366,0.0,,,,3,0,3,3
1788939204.024337,4465550557.0,-9.6953125,1.21875,1.8046875,0.076171875,-0.060546875,-0.021484375,23.1875,-7.6875,-29.1875,23.1875,-7.6875,-29.1875,0.028528829187160907,-0.6348409374151827,0.08910397729689055,0.7669573464782099,29.428148995946827,78.20238656946368,-160.16539893906193,0.51824951171875,0.5135498046875,0.38323974609375,-0.56634521484375,28.77845241351054,78.2149100475014,-71.48585057950244,0.9088447628317211,,,,3,0,3,3
1788939204.030322,4465554340.0,-9.66015625,1.2578125,1.8046875,0.078125,-0.052734375,-0.03125,23.0625,-7.8125,-29.875,23.0625,-7.8125,-29.875,0.028611861390336526,-0.6347382684468937,0.08935241156198936,0.7670103249010903,29.475421081972637,78.18524355795864,-160.14537238018966,0.51824951171875,0.5135498046875,0.38323974609375,-0.56634521484375,28.77845241351054,78.2149100475014,-71.48585057950244,0.9081039426596582,,,,3,0,3,3
1788939204.030322,4465558823.0,-9.6171875,1.1796875,1.8046875,0.06640625,-0.056640625,-0.0390625,23.0625,-7.8125,-29.875,23.0625,-7.8125,-29.875,0.028720870311106,-0.6346073695978643,0.08961872693827941,0.7670834907900276,29.513563645701304,78.16478817930079,-160.1380913961482,0.51812744140625,0.5135498046875,0.383056640625,-0.56671142578125,28.691690477304583,78.24097915461542,-71.67025343778934,0.0,,,,3,0,3,3
1788939204.0410268,4465562206.0,-9.578125,1.10546875,1.8046875,0.056640625,-0.052734375,-0.044921875,23.4375,-6.8125,-29.375,23.4375,-6.8125,-29.375,0.02875513196990995,-0.6344749619313057,0.08972919130181407,0.7671788170276755,29.50941117923578,78.14533893795179,-160.15424615968126,0.51812744140625,0.5135498046875,0.383056640625,-0.56671142578125,28.691690477304583,78.24097915461542,-71.67025343778934,0.0,,,,3,0,3,3
1788939204.0340607,4465566759.0,-9.54296875,1.10546875,1.8828125,0.056640625,-0.052734375,-0.044921875,23.4375,-6.8125,-29.375,23.4375,-6.8125,-29.375,0.02885142021837848,-0.6342702808230591,0.08982165478327768,0.7673336150254425,29.457130964374574,78.11885205577597,-160.22219086686823,0.51812744140625,0.5135498046875,0.383056640625,-0.56671142578125,28.691690477304583,78.24097915461542,-71.67025343778934,0.0,,,,3,0,3,3
1788939204.0410268,4465570665.0,-9.578125,1.14453125,1.84375,0.03515625,-0.052734375,-0.041015625,23.4375,-6.8125,-29.375,23.4375,-6.8125,-29.375,0.028865428276991515,-0.6341126471789614,0.08991459001204123,0.7674524768616245,29.44463974781316,78.09569521584669,-160.24362992952874,0.51800537109375,0.513427734375,0.38287353515625,-0.5670166015625,28.551888027416112,78.21059683850063,-71.82017407863394,0.0,,,,3,0,3,3
1788939204.0533862,4465574248.0,-9.58203125,1.14453125,1.8046875,-0.0078125,-0.037109375,-0.029296875,23.4375,-6.3125,-29.3125,23.4375,-6.3125,-29.3125,0.028774506451368028,-0.6340117953933995,0.08982698720800764,0.767549466451284,29.40644691839118,78.08092609421715,-160.2673570979512,0.51800537109375,0.513427734375,0.38287353515625,-0.5670166015625,28.551888027416112,78.21059683850063,-71.82017407863394,0.0,,,,3,0,3,3
1788939204.0557187,4465578154.0,-9.578125,1.10546875,1.765625,-0.0390625,-0.041015625,-0.025390625,23.4375,-6.3125,-29.3125,23.4375,-6.3125,-29.3125,0.028623135281487685,-0.6339416319832147,0.08962547610066249,0.7676366310949768,29.34878107230591,78.0709642910413,-160.2962593909844,0.51800537109375,0.51318359375,0.3829345703125,-0.567138671875,28.395087571858905,78.18584894879915,-71.94062039449719,0.6382551293171217,,,,3,0,3,3
1788939204.0577152,4465581937.0,-9.54296875,1.02734375,1.73046875,-0.037109375,-0.056640625,-0.03125,24.0,-6.125,-27.8125,24.0,-6.125,-27.8125,0.028589962438730097,-0.6339070366708366,0.08935193302690952,0.7676983228920755,29.235385149466225,78.07193811836115,-160.3845702144545,0.51800537109375,0.51318359375,0.3829345703125,-0.567138671875,28.395087571858905,78.18584894879915,-71.94062039449719,0.6332587338883506,,,,3,0,3,3
1788939204.06264,4465585914.0,-9.50390625,0.9140625,1.765625,-0.037109375,-0.056640625,-0.03125,24.0,-6.125,-27.8125,24.0,-6.125,-27.8125,0.028649232594602052,-0.6338290055592539,0.08906483977025664,0.7677938964984068,29.075135471492636,78.07068731702843,-160.52620477847123,0.51800537109375,0.51318359375,0.3829345703125,-0.567138671875,28.395087571858905,78.18584894879915,-71.94062039449719,0.6231786193233884,,,,3,0,3,3
1788939204.0715532,4465589620.0,-9.58203125,0.875,1.8046875,-0.0234375,-0.0625,-0.01953125,24.0,-6.125,-27.8125,24.0,-6.125,-27.8125,0.02871886841958485,-0.6337348178785142,0.08883825660915846,0.7678952867206768,28.932166531442096,78.06604958804131,-160.65638298713793,0.51812744140625,0.51287841796875,0.38299560546875,-0.5672607421875,28.237261745215704,78.16789559360475,-72.07689990036211,0.6338292811691912,,,,3,0,3,3
1788939204.0715532,4465593979.0,-9.66015625,0.875,1.8046875,-0.01171875,-0.0625,-0.00390625,23.5,-6.25,-29.0,23.5,-6.25,-29.0,0.028788669737567125,-0.6336338037896656,0.08860684979892527,0.7680027612961371,28.785296257713842,78.0605482509143,-160.79008929044062,0.51812744140625,0.51287841796875,0.38299560546875,-0.5672607421875,28.237261745215704,78.16789559360475,-72.07689990036211,0.625545107531627,,,,3,0,3,3
1788939204.0747137,4465597485.0,-9.6953125,0.875,1.8046875,-0.00390625,-0.05078125,0.01171875,23.5,-6.25,-29.0,23.5,-6.25,-29.0,0.028832013788063417,-0.6335712009680308,0.08844818778435053,0.768071068562354,28.687990101288968,78.05748242562447,-160.87799442510595,0.518310546875,0.5126953125,0.38287353515625,-0.5673828125,28.173604927188137,78.14867193880146,-72.15225649850564,0.0,,,,3,0,3,3
1788939204.0707786,4465601515.0,-9.73046875,0.875,1.8046875,-0.00390625,-0.05078125,0.01171875,23.5,-6.25,-29.0,23.5,-6.25,-29.0,0.02888323102068794,-0.633505319774866,0.08826537755432441,0.7681445123854904,28.57733514236394,78.05481108118506,-160.97791436888724,0.518310546875,0.5126953125,0.38287353515625,-0.5673828125,28.173604927188137,78.14867193880146,-72.15225649850564,0.0,,,,3,0,3,3
1788939204.0747137,4465605421.0,-9.73046875,0.875,1.8046875,0.00390625,-0.037109375,0.013671875,26.3125,-7.75,-34.1875,26.3125,-7.75,-34.1875,0.02898973003594566,-0.6334683305493991,0.08813028837957669,0.768186515120861,28.47766306192929,78.05684773697519,-161.07523126661613,0.518310546875,0.5126953125,0.38287353515625,-0.5673828125,28.173604927188137,78.14867193880146,-72.15225649850564,0.0,,,,3,0,3,3
1788939204.0747137,4465609528.0,-9.76953125,0.953125,1.84375,0.009765625,-0.03515625,0.009765625,26.3125,-7.75,-34.1875,26.3125,-7.75,-34.1875,0.029070626631824126,-0.6333466371400397,0.08802648818655155,0.7682956939018849,28.37487117503804,78.04565444555637,-161.1762485447896,0.5184326171875,0.5125732421875,0.38275146484375,-0.56744384765625,28.138329869852754,78.11828802819414,-72.17529844512362,0.19789711678084482,,,,3,0,3,3
1788939204.0814922,4465613010.0,-9.8046875,0.953125,1.8046875,0.025390625,-0.021484375,0.0,25.5,-7.375,-35.3125,25.5,-7.375,-35.3125,0.029117044516235993,-0.6333461122184241,0.0878885323181866,0.7683101624626619,28.3030107070052,78.05054013645949,-161.24058263353822,0.5184326171875,0.5125732421875,0.38275146484375,-0.56744384765625,28.138329869852754,78.11828802819414,-72.17529844512362,0.18890915327969232,,,,3,0,3,3
1788939204.09052,4465617493.0,-9.765625,0.875,1.765625,0.03125,-0.029296875,-0.005859375,25.5,-7.375,-35.3125,25.5,-7.375,-35.3125,0.029238613541950866,-0.633353553219439,0.08772898003754999,0.7683176466566592,28.201015003234478,78.05966255962791,-161.33939340155558,0.5184326171875,0.5125732421875,0.38262939453125,-0.56756591796875,28.124889754841917,78.1178899506719,-72.22060544009398,0.0,,,,3,0,3,3
1788939204.09052,4465620870.0,-9.6953125,0.875,1.8046875,0.03125,-0.029296875,-0.005859375,25.5,-7.375,-35.3125,25.5,-7.375,-35.3125,0.029329530945310874,-0.6333281299334295,0.08760075179492036,0.7683497684873197,28.112221504541772,78.06244646623882,-161.42511232692954,0.5184326171875,0.5125732421875,0.38262939453125,-0.56756591796875,28.124889754841917,78.1178899506719,-72.22060544009398,0.0,,,,3,0,3,3
1788939204.09052,4465624853.0,-9.66015625,0.875,1.8046875,0.03515625,-0.03515625,-0.0078125,26.0,-8.0625,-36.3125,26.0,-8.0625,-36.3125,0.029512459048692995,-0.6332860605884387,0.08748513759812027,0.7683906109035388,27.995329786892782,78.06585598304972,-161.5474774275845,0.5184326171875,0.5125732421875,0.38262939453125,-0.56756591796875,28.124889754841917,78.1178899506719,-72.22060544009398,0.0,,,,3,0,2,3
1788939204.1080263,4465629735.0,-9.65625,0.875,1.84375,0.03125,-0.029296875,-0.009765625,26.0,-8.0625,-36.3125,26.0,-8.0625,-36.3125,0.02971051316599522,-0.6331759584930892,0.08736092549889972,0.7684878396498847,27.85115551286313,78.0606468977923,-161.69773402225866,0.51837158203125,0.5125732421875,0.38250732421875,-0.56768798828125,28.096162332960233,78.10450602441212,-72.25998633066096,0.0,,,,3,0,2,3
1788939204.1080263,4465633518.0,-9.58203125,0.875,1.8046875,0.015625,-0.037109375,0.00390625,27.0,-8.0625,-36.1875,27.0,-8.0625,-36.1875,0.029833759151597004,-0.6331135122497249,0.0872340173016734,0.7685489272955323,27.742510323001827,78.05935466956628,-161.8060910983935,0.51837158203125,0.5125732421875,0.38250732421875,-0.56768798828125,28.096162332960233,78.10450602441212,-72.25998633066096,0.0,,,,3,0,2,3
1788939204.1080263,4465636495.0,-9.54296875,0.8359375,1.8046875,0.015625,-0.037109375,0.00390625,27.0,-8.0625,-36.1875,27.0,-8.0625,-36.1875,0.029935475745312384,-0.6330642989305909,0.08713729864939834,0.7685964818391422,27.656852609079888,78.05839103882485,-161.89216583192606,0.51837158203125,0.5125732421875,0.38250732421875,-0.56768798828125,28.096162332960233,78.10450602441212,-72.25998633066096,0.0,,,,3,0,2,3
1788939204.1080263,4465640401.0,-9.50390625,0.8359375,1.8046875,0.01953125,-0.03515625,0.009765625,27.0,-8.0625,-36.1875,27.0,-8.0625,-36.1875,0.03006306522492151,-0.6329920698938247,0.08702739303111419,0.7686634402799585,27.551315060538442,78.05544672024753,-161.999174837864,0.51837158203125,0.51251220703125,0.38238525390625,-0.56781005859375,28.050990187590312,78.08486212997448,-72.30912623899947,0.0,,,,3,0,2,3
1788939204.1228666,4465645160.0,-9.46484375,0.8359375,1.8046875,0.03125,-0.025390625,0.015625,22.375,-7.875,-30.3125,22.375,-7.875,-30.3125,0.030168316431515987,-0.6329173128930149,0.0873277763589734,0.7686868069637793,27.623158682311384,78.0419157888992,-161.9606127721893,0.51837158203125,0.51251220703125,0.38238525390625,-0.56781005859375,28.050990187590312,78.08486212997448,-72.30912623899947,0.0,,,,3,0,3,3
1788939204.1243792,4465648667.0,-9.42578125,0.875,1.84375,0.046875,-0.0234375,0.029296875,22.375,-7.875,-30.3125,22.375,-7.875,-30.3125,0.03022155547283887,-0.6328355694400193,0.08758603407020536,0.7687226328606317,27.691638748513128,78.02660074396431,-161.91773503006374,0.51837158203125,0.5125732421875,0.3822021484375,-0.56787109375,28.085733405919843,78.06879084808293,-72.28900517773184,0.0,,,,3,0,3,3
1788939204.1243792,4465652650.0,-9.42578125,0.875,1.84375,0.052734375,-0.005859375,0.033203125,23.4375,-7.8125,-29.8125,23.4375,-7.8125,-29.8125,0.0302782579811823,-0.6327662068815038,0.0878935035304138,0.7687424058548924,27.78277358382862,78.01195382017019,-161.8565048540918,0.51837158203125,0.5125732421875,0.3822021484375,-0.56787109375,28.085733405919843,78.06879084808293,-72.28900517773184,0.0,,,,3,0,3,3
1788939204.1243792,4465656326.0,-9.42578125,0.875,1.84375,0.052734375,-0.005859375,0.033203125,23.4375,-7.8125,-29.8125,23.4375,-7.8125,-29.8125,0.030334010829052172,-0.6327012243981548,0.08817598150376785,0.7687613444482922,27.864875088964215,77.99844292876867,-161.80217842851366,0.51837158203125,0.5125732421875,0.3822021484375,-0.56787109375,28.085733405919843,78.06879084808293,-72.28900517773184,0.0,,,,3,0,3,3
1788939204.1243792,4465660232.0,-9.46484375,0.953125,1.8046875,0.052734375,0.0,0.046875,23.4375,-7.8125,-29.8125,23.4375,-7.8125,-29.8125,0.0303287243874756,-0.6326693580966323,0.08850675155399285,0.7687497686061335,27.994896018436915,77.9861844004946,-161.6988804773328,0.5184326171875,0.5126953125,0.3819580078125,-0.56787109375,28.18360375451204,78.0500026547776,-72.20970134718706,0.0,,,,3,0,3,3
1788939204.1408167,4465664692.0,-9.5,0.953125,1.84375,0.0546875,0.009765625,0.048828125,23.125,-8.75,-30.0,23.125,-8.75,-30.0,0.030329266760509455,-0.6326477596672487,0.08889112867564637,0.7687231718951567,28.147948356336382,77.9742303952777,-161.57740975700122,0.5184326171875,0.5126953125,0.3819580078125,-0.56787109375,28.18360375451204,78.0500026547776,-72.20970134718706,0.0,,,,3,0,3,3
1788939204.1451716,4465667798.0,-9.5,0.953125,1.84375,0.05078125,0.009765625,0.052734375,23.125,-8.75,-30.0,23.125,-8.75,-30.0,0.03032244364638566,-0.6326318383529773,0.08915789565789944,0.7687056498786119,28.25598573429849,77.96552078548581,-161.49070667442768,0.5184326171875,0.512939453125,0.3817138671875,-0.56781005859375,28.340941978639144,78.0393608200945,-72.07507950003902,0.0740244467702537,,,,3,0,3,3
1788939204.1432185,4465672228.0,-9.5,0.953125,1.84375,0.05078125,0.009765625,0.052734375,23.125,-8.75,-30.0,23.125,-8.75,-30.0,0.03031408629096927,-0.6326085766111855,0.08953826332419429,0.7686809119336845,28.40923416568798,77.95302627322693,-161.3679916874528,0.5184326171875,0.512939453125,0.3817138671875,-0.56781005859375,28.340941978639144,78.0393608200945,-72.07507950003902,0.10065932530755192,,,,3,0,3,3
1788939204.1451716,4465676134.0,-9.5,0.953125,1.84375,0.03515625,0.013671875,0.052734375,23.9375,-5.6875,-28.1875,23.9375,-5.6875,-28.1875,0.030283875406125746,-0.6325959566378422,0.08947989568819847,0.7686992850285921,28.390877348406505,77.95162596997015,-161.3791175746371,0.5184326171875,0.512939453125,0.3817138671875,-0.56781005859375,28.340941978639144,78.0393608200945,-72.07507950003902,0.10404681058295719,,,,3,0,3,3
1788939204.1563268,4465680040.0,-9.5390625,0.9140625,1.84375,0.02734375,0.0078125,0.052734375,23.9375,-5.6875,-28.1875,23.9375,-5.6875,-28.1875,0.030260729564284584,-0.6325828099597461,0.08940522158453953,0.7687197038863309,28.3634737166129,77.95079155484451,-161.39852947949294,0.51849365234375,0.51318359375,0.38153076171875,-0.56768798828125,28.52006018116943,78.04176080607982,-71.92395312393973,0.0,,,,3,0,3,3
1788939204.158214,4465683623.0,-9.5390625,0.875,1.84375,0.01953125,0.009765625,0.0703125,22.625,-6.5,-30.5,22.625,-6.5,-30.5,0.030227471953255827,-0.6325637472394734,0.08935362352288702,0.7687426979041824,28.347056134341013,77.94824376949117,-161.40803095248353,0.51849365234375,0.51318359375,0.38153076171875,-0.56768798828125,28.52006018116943,78.04176080607982,-71.92395312393973,0.0,,,,3,0,3,3
1788939204.162692,4465688206.0,-9.578125,0.875,1.84375,0.009765625,0.0078125,0.083984375,22.625,-6.5,-30.5,22.625,-6.5,-30.5,0.030149893060648417,-0.6325400968935017,0.08928662300071918,0.7687729890699324,28.33661990219484,77.9438689699373,-161.4066836512928,0.51861572265625,0.51336669921875,0.38134765625,-0.5675048828125,28.693550792915946,78.02051939267416,-71.74126806671262,0.0,,,,3,0,3,3
1788939204.160739,4465691359.0,-9.5390625,0.875,1.84375,0.009765625,0.0078125,0.083984375,22.625,-6.5,-30.5,22.625,-6.5,-30.5,0.030095133375928312,-0.6325199289136032,0.0892427286189004,0.7687968248262141,28.329688819380106,77.94022755169621,-161.40558013178583,0.51861572265625,0.51336669921875,0.38134765625,-0.5675048828125,28.693550792915946,78.02051939267416,-71.74126806671262,0.0,,,,3,0,3,3
1788939204.162692,4465695942.0,-9.5,0.8359375,1.84375,0.01171875,0.013671875,0.091796875,23.25,-6.125,-28.3125,23.25,-6.125,-28.3125,0.030018451868382232,-0.6325020162498096,0.08919618968745911,0.7688199605451136,28.32902844912559,77.93618160040198,-161.3962006513167,0.51861572265625,0.51336669921875,0.38134765625,-0.5675048828125,28.693550792915946,78.02051939267416,-71.74126806671262,0.0,,,,3,0,3,3
1788939204.1741989,4465699848.0,-9.5,0.875,1.84375,0.0234375,0.01953125,0.099609375,23.25,-6.125,-28.3125,23.25,-6.125,-28.3125,0.029942780364384497,-0.6324880164778528,0.08918473264474931,0.7688357577396138,28.34361434801628,77.93187043056606,-161.37452866396336,0.51885986328125,0.51361083984375,0.38116455078125,-0.56719970703125,28.95140375088228,78.00943073073536,-71.4835633426788,0.0,,,,3,0,3,3
1788939204.1741989,4465703831.0,-9.5,0.875,1.84375,0.025390625,0.01953125,0.111328125,27.875,-7.3125,-34.25,27.875,-7.3125,-34.25,0.02984666384764604,-0.6324742419216315,0.08918815470771067,0.7688504295522353,28.37065131223255,77.92651084294154,-161.3399598789269,0.51885986328125,0.51361083984375,0.38116455078125,-0.56719970703125,28.95140375088228,78.00943073073536,-71.4835633426788,0.0,,,,3,0,2,3
1788939204.1741989,4465707337.0,-9.5,0.875,1.84375,0.033203125,0.021484375,0.123046875,27.875,-7.3125,-34.25,27.875,-7.3125,-34.25,0.029755047955083425,-0.6324628645502763,0.08921463883516517,0.7688602670860033,28.40645300121716,77.92108360201969,-161.29888087022178,0.51910400390625,0.513916015625,0.380859375,-0.56689453125,29.248991477384312,77.98237849049247,-71.18519111183639,0.0,,,,3,0,2,3
1788939204.1741989,4465711690.0,-9.5390625,0.9140625,1.84375,0.033203125,0.021484375,0.123046875,27.875,-7.3125,-34.25,27.875,-7.3125,-34.25,0.029626869817970154,-0.632447987453382,0.08924549654584077,0.7688738733350496,28.454229971340506,77.91377286609365,-161.24321129269768,0.51910400390625,0.513916015625,0.380859375,-0.56689453125,29.248991477384312,77.98237849049247,-71.18519111183639,0.0,,,,3,0,2,3
1788939204.190565,4465714696.0,-9.62109375,0.9140625,1.8046875,0.03125,0.033203125,0.134765625,26.5,-6.875,-34.75,26.5,-6.875,-34.75,0.029512991971669233,-0.6324784036747291,0.0892636657563277,0.7688511235380288,28.5050740404201,77.91342842637268,-161.1845438682503,0.51910400390625,0.513916015625,0.380859375,-0.56689453125,29.248991477384312,77.98237849049247,-71.18519111183639,0.0,,,,3,0,2,3
1788939204.190565,4465719579.0,-9.66015625,0.953125,1.73046875,0.048828125,0.03515625,0.12890625,26.5,-6.875,-34.75,26.5,-6.875,-34.75,0.0293474319794877,-0.6325831679249508,0.08932811093757612,0.7687637819841456,28.611710751445568,77.92022193768179,-161.06957778386797,0.519287109375,0.51434326171875,0.3804931640625,-0.5665283203125,29.609819431833273,77.94578728235453,-70.81354478929757,0.8629217677258667,,,,3,0,2,3
1788939204.2011166,4465723362.0,-9.7265625,1.10546875,1.69140625,0.05859375,0.029296875,0.125,25.75,-5.5625,-35.375,25.75,-5.5625,-35.375,0.02918980197446077,-0.6326505893546902,0.08938796964340723,0.7687073423175328,28.703581563701793,77.92229796666705,-160.9696934122487,0.519287109375,0.51434326171875,0.3804931640625,-0.5665283203125,29.609819431833273,77.94578728235453,-70.81354478929757,0.8640832273179322,,,,3,0,2,3
1788939204.2031207,4465727315.0,-9.8046875,1.21875,1.765625,0.05859375,0.029296875,0.125,25.75,-5.5625,-35.375,25.75,-5.5625,-35.375,0.028990213399862422,-0.6327023465651483,0.08945667742983575,0.7686643032177308,28.807480561780913,77.92049423688417,-160.8551082284027,0.519287109375,0.51434326171875,0.3804931640625,-0.5665283203125,29.609819431833273,77.94578728235453,-70.81354478929757,0.8667777677051632,,,,3,0,2,3
1788939204.2071888,4465731221.0,-9.84765625,1.21875,1.8046875,0.072265625,0.025390625,0.12109375,25.75,-5.5625,-35.375,25.75,-5.5625,-35.375,0.02882065844494112,-0.6327364944144062,0.08953814574979484,0.7686330845980134,28.902410349980453,77.91703139863114,-160.75300645088458,0.51947021484375,0.51483154296875,0.380126953125,-0.5662841796875,29.979708234089863,77.96246226119433,-70.52226712845047,0.0,,,,3,0,2,3
1788939204.2071888,4465735004.0,-9.84375,1.1796875,1.8046875,0.060546875,0.0234375,0.109375,26.1875,-9.25,-35.0625,26.1875,-9.25,-35.0625,0.02868924464677272,-0.6327521681347041,0.08993728627066212,0.7685784966421435,29.11070867509108,77.90455160665373,-160.56671248452258,0.51947021484375,0.51483154296875,0.380126953125,-0.5662841796875,29.979708234089863,77.96246226119433,-70.52226712845047,0.0,,,,3,0,2,3
1788939204.2071888,4465738510.0,-9.9609375,1.296875,1.8046875,0.046875,0.033203125,0.099609375,26.1875,-9.25,-35.0625,26.1875,-9.25,-35.0625,0.02854869589348565,-0.6327835345480255,0.09027409735367574,0.7685184172904824,29.30043083339407,77.89529400613553,-160.39312265651336,0.51953125,0.5152587890625,0.37969970703125,-0.5660400390625,30.290263985806483,77.9171500542985,-70.2055911060946,0.48798905991517294,,,,3,0,2,3
1788939204.2052212,4465742093.0,-9.9609375,1.296875,1.765625,0.037109375,0.03515625,0.078125,23.5,-6.75,-29.0625,23.5,-6.75,-29.0625,0.028367576660002253,-0.63285151570882,0.09053233112237402,0.7684387657328571,29.48070502667738,77.89136683580229,-160.21918986070096,0.51953125,0.5152587890625,0.37969970703125,-0.5660400390625,30.290263985806483,77.9171500542985,-70.2055911060946,0.4836457739967443,,,,3,0,3,3
1788939204.2071888,4465746370.0,-9.921875,1.2578125,1.73046875,0.037109375,0.03515625,0.078125,23.5,-6.75,-29.0625,23.5,-6.75,-29.0625,0.02816457852383748,-0.6329550435796057,0.09082089581932189,0.76832690581958,29.690317317005203,77.89054849903926,-160.01658222808229,0.51953125,0.5152587890625,0.37969970703125,-0.5660400390625,30.290263985806483,77.9171500542985,-70.2055911060946,0.4820979418557494,,,,3,0,3,3
1788939204.2239342,4465749976.0,-9.9609375,1.2578125,1.65234375,0.033203125,0.03125,0.0625,23.5,-6.75,-29.0625,23.5,-6.75,-29.0625,0.02803738962469177,-0.6330618448525664,0.09101398802589822,0.7682207100557236,29.83905344534169,77.89529750055209,-159.87319264703314,0.5196533203125,0.515625,0.3795166015625,-0.5657958984375,30.56865552232429,77.93501137137976,-69.97265729644957,0.0,,,,3,0,3,3
1788939204.2305706,4465754335.0,-9.921875,1.21875,1.57421875,0.037109375,0.01953125,0.044921875,23.5625,-7.625,-28.75,23.5625,-7.625,-28.75,0.02796660890773496,-0.6331572484575835,0.09128033542500828,0.7681130567022811,29.997450812774577,77.89865119962606,-159.7307578181664,0.5196533203125,0.515625,0.3795166015625,-0.5657958984375,30.56865552232429,77.93501137137976,-69.97265729644957,0.0,,,,3,0,3,3
1788939204.2349074,4465757842.0,-9.84765625,1.14453125,1.57421875,0.048828125,0.013671875,0.02734375,23.5625,-7.625,-28.75,23.5625,-7.625,-28.75,0.027959508085515526,-0.6332339551484153,0.09148252509913038,0.768026022707693,30.105001593010613,77.9034685656494,-159.63911737916118,0.5196533203125,0.51580810546875,0.37939453125,-0.565673828125,30.694674841663353,77.92251877451855,-69.84086622238381,0.0,,,,3,0,3,3
1788939204.2379754,4465761871.0,-9.84375,1.14453125,1.65234375,0.048828125,0.013671875,0.02734375,23.5625,-7.625,-28.75,23.5625,-7.625,-28.75,0.027946978420558363,-0.6333081825061939,0.09173641849927264,0.7679349854569646,30.234643014975333,77.90636881964213,-159.52918798469094,0.5196533203125,0.51580810546875,0.37939453125,-0.565673828125,30.694674841663353,77.92251877451855,-69.84086622238381,0.0,,,,3,0,3,3
1788939204.2405212,4465766554.0,-9.88671875,1.10546875,1.65234375,0.052734375,0.001953125,0.01953125,23.1875,-8.625,-29.3125,23.1875,-8.625,-29.3125,0.027983004589918533,-0.6333540976230538,0.09205427975319894,0.7678577655121601,30.367341878166652,77.90557679548147,-159.4254370028658,0.5196533203125,0.51580810546875,0.37939453125,-0.565673828125,30.694674841663353,77.92251877451855,-69.84086622238381,0.0,,,,3,0,3,3
1788939204.2470062,4465770460.0,-9.73046875,1.02734375,1.73046875,0.06640625,-0.001953125,0.009765625,23.1875,-8.625,-29.3125,23.1875,-8.625,-29.3125,0.02806353529634007,-0.6333662718188972,0.09234482717033404,0.7678098961356143,30.465356297474134,77.90262172235266,-159.35779672211478,0.51959228515625,0.5159912109375,0.37921142578125,-0.565673828125,30.78733759827975,77.91446045856281,-69.76772210993099,0.0,,,,3,0,3,3
1788939204.2490115,4465774243.0,-9.6953125,1.02734375,1.69140625,0.056640625,0.0,0.00390625,23.25,-7.625,-28.75,23.25,-7.625,-28.75,0.028139679766533865,-0.6334203401118901,0.09256441224867086,0.7677360618990309,30.548422875918135,77.90697306830256,-159.29887612391852,0.51959228515625,0.5159912109375,0.37921142578125,-0.565673828125,30.78733759827975,77.91446045856281,-69.76772210993099,0.0,,,,3,0,3,3
1788939204.256363,4465778050.0,-9.65625,1.06640625,1.73046875,0.046875,0.0,0.005859375,23.25,-7.625,-28.75,23.25,-7.625,-28.75,0.028180602829077733,-0.6334453794328648,0.09280771360993233,0.7676845271293675,30.64296218358291,77.90545449337775,-159.22759579560457,0.51947021484375,0.51617431640625,0.37908935546875,-0.56573486328125,30.851059362457153,77.9283593153157,-69.74736206393406,0.0,,,,3,0,3,3
1788939204.255673,4465782079.0,-9.65625,1.10546875,1.765625,0.046875,0.0,0.005859375,23.25,-7.625,-28.75,23.25,-7.625,-28.75,0.028203031930834642,-0.6334424375069627,0.09308109555796806,0.7676530316522395,30.746758720312165,77.89866525389775,-159.14805469557788,0.51947021484375,0.51617431640625,0.37908935546875,-0.56573486328125,30.851059362457153,77.9283593153157,-69.74736206393406,0.0,,,,3,0,3,3
1788939204.25161,4465785985.0,-9.5390625,1.06640625,1.765625,0.044921875,-0.001953125,0.005859375,22.75,-8.75,-30.0,22.75,-8.75,-30.0,0.028253224224919587,-0.6334274663732414,0.0933476532931753,0.7676311717156421,30.835724677140725,77.89148697581254,-159.08506112259496,0.51947021484375,0.51617431640625,0.37908935546875,-0.56573486328125,30.851059362457153,77.9283593153157,-69.74736206393406,0.0,,,,3,0,3,3
1788939204.2604642,4465789992.0,-9.5,1.06640625,1.8046875,0.03515625,0.0078125,0.001953125,22.75,-8.75,-30.0,22.75,-8.75,-30.0,0.028296690395954685,-0.6334101422194066,0.09360296366168382,0.7676127762355027,30.921329567751084,77.88402227672074,-159.02396207921322,0.5194091796875,0.5162353515625,0.37896728515625,-0.5657958984375,30.86444309618401,77.91712966090658,-69.74233066340909,0.0,,,,3,0,3,3
1788939204.2626777,4465793675.0,-9.42578125,1.06640625,1.8046875,0.0234375,0.01171875,0.0,23.0625,-7.8125,-29.875,23.0625,-7.8125,-29.875,0.028311473856083364,-0.6333624935356127,0.09380082993816437,0.7676273943348809,30.982768606238412,77.87292714692461,-158.98001874454502,0.5194091796875,0.5162353515625,0.37896728515625,-0.5657958984375,30.86444309618401,77.91712966090658,-69.74233066340909,0.0,,,,3,0,3,3
1788939204.2760327,4465797181.0,-9.421875,1.02734375,1.8046875,0.03515625,0.017578125,0.005859375,23.0625,-7.8125,-29.875,23.0625,-7.8125,-29.875,0.028360058552608126,-0.6333151818805687,0.09400227421203,0.7676399936958999,31.035625897840028,77.86307557503916,-158.94770374131056,0.51934814453125,0.516357421875,0.37896728515625,-0.56573486328125,30.925712812701345,77.925026478515,-69.68552670048669,0.0,,,,3,0,3,3
1788939204.2771368,4465801534.0,-9.34765625,0.98828125,1.8046875,0.03515625,0.017578125,0.005859375,23.0625,-7.8125,-29.875,23.0625,-7.8125,-29.875,0.028457360756786235,-0.6332396591418682,0.09421316822382228,0.7676728415424623,31.069142961838104,77.85107683202082,-158.93950767787197,0.51934814453125,0.516357421875,0.37896728515625,-0.56573486328125,30.925712812701345,77.925026478515,-69.68552670048669,0.0,,,,3,0,3,3
1788939204.2783587,4465805517.0,-9.38671875,0.98828125,1.8046875,0.029296875,0.025390625,0.015625,25.4375,-6.9375,-35.25,25.4375,-6.9375,-35.25,0.0284730525365366,-0.633258544176529,0.09409520681472135,0.7676711493609549,31.022404698489986,77.85736499205392,-158.9778220058408,0.51934814453125,0.516357421875,0.37896728515625,-0.56573486328125,30.925712812701345,77.925026478515,-69.68552670048669,0.0,,,,3,0,3,3
1788939204.2783587,4465809423.0,-9.38671875,0.98828125,1.8046875,0.015625,0.02734375,0.029296875,25.4375,-6.9375,-35.25,25.4375,-6.9375,-35.25,0.02845020335331491,-0.6332778903001015,0.09397623268170908,0.7676706111850062,30.986823061240734,77.86225576994809,-159.00175755170974,0.519287109375,0.51654052734375,0.37890625,-0.565673828125,31.02291876218445,77.9344722120552,-69.60648360913363,0.0,,,,3,0,3,3
1788939204.2897687,4465813006.0,-9.38671875,1.02734375,1.8046875,0.009765625,0.025390625,0.044921875,27.4375,-12.375,-36.25,27.4375,-12.375,-36.25,0.028408003594753383,-0.6332889391510969,0.09421909637936629,0.7676332892456492,31.101315595485623,77.85559765446064,-158.90374054765041,0.519287109375,0.51654052734375,0.37890625,-0.565673828125,31.02291876218445,77.9344722120552,-69.60648360913363,0.0,,,,3,0,2,3
1788939204.2934136,4465816959.0,-9.38671875,1.02734375,1.8046875,0.009765625,0.025390625,0.044921875,27.4375,-12.375,-36.25,27.4375,-12.375,-36.25,0.028362242627368656,-0.6333007258391845,0.09448697755733779,0.7675923298970537,31.227127202772955,77.8481889473528,-158.79616701929325,0.519287109375,0.51654052734375,0.37890625,-0.565673828125,31.02291876218445,77.9344722120552,-69.60648360913363,0.0,,,,3,0,2,3
1788939204.2977488,4465820865.0,-9.421875,0.98828125,1.8046875,0.001953125,0.03515625,0.0546875,27.4375,-12.375,-36.25,27.4375,-12.375,-36.25,0.028300480203404393,-0.6333271308870803,0.09475149145611125,0.7675402158645751,31.360704020256616,77.84215509352669,-158.67923159224176,0.519287109375,0.5167236328125,0.37884521484375,-0.56549072265625,31.156734515143476,77.92201688724099,-69.45094227962223,0.6062537316020765,,,,3,0,2,3
1788939204.3020496,4465824648.0,-9.4609375,1.06640625,1.765625,0.005859375,0.037109375,0.068359375,26.6875,-8.0,-35.875,26.6875,-8.0,-35.875,0.02818860833297417,-0.6333544074193996,0.09466930463004854,0.767531966580894,31.368970193422328,77.84367561043426,-158.65507722926577,0.519287109375,0.5167236328125,0.37884521484375,-0.56549072265625,31.156734515143476,77.92201688724099,-69.45094227962223,0.6082046302691485,,,,3,0,2,3
1788939204.3063848,4465828354.0,-9.5,1.06640625,1.8046875,-0.001953125,0.0390625,0.07421875,26.6875,-8.0,-35.875,26.6875,-8.0,-35.875,0.02806655348265008,-0.6333614140624042,0.0946018048376896,0.7675389802960688,31.37992664981382,77.84170080754079,-158.62863383791935,0.5194091796875,0.5169677734375,0.3787841796875,-0.56524658203125,31.363800019288306,77.93647784144125,-69.26271257089795,0.0,,,,3,0,2,3
1788939204.3099225,4465832137.0,-9.578125,1.10546875,1.8046875,0.001953125,0.044921875,0.08203125,25.4375,-8.4375,-35.75,25.4375,-8.4375,-35.75,0.02788441292649296,-0.6333201019641914,0.09467191365109474,0.7675710629833897,31.449306127113076,77.82720079950575,-158.55022554329273,0.5194091796875,0.5169677734375,0.3787841796875,-0.56524658203125,31.363800019288306,77.93647784144125,-69.26271257089795,0.0,,,,3,0,2,3
1788939204.3118901,4465836014.0,-9.66015625,1.14453125,1.765625,0.001953125,0.044921875,0.08203125,25.4375,-8.4375,-35.75,25.4375,-8.4375,-35.75,0.02757645218209676,-0.6333944637824753,0.0948355457135363,0.7675006265821382,31.629315243626085,77.82058399540657,-158.35847219966573,0.5194091796875,0.5169677734375,0.3787841796875,-0.56524658203125,31.363800019288306,77.93647784144125,-69.26271257089795,0.0,,,,3,0,2,3
1788939204.3161469,4465840896.0,-9.7265625,1.1796875,1.8046875,0.0,0.04296875,0.08203125,25.4375,-8.4375,-35.75,25.4375,-8.4375,-35.75,0.027217764535632273,-0.6333856524037541,0.0950487586829,0.767494327077141,31.81792958148643,77.79943751292834,-158.15815533547647,0.51953125,0.5172119140625,0.37872314453125,-0.56494140625,31.581753128136214,77.93356549762404,-69.03304297022054,0.0,,,,3,0,2,3
1788939204.3183415,4465844179.0,-9.7265625,1.1796875,1.8046875,-0.005859375,0.0390625,0.080078125,23.125,-8.6875,-29.625,23.125,-8.6875,-29.625,0.027091701342159404,-0.6334105940839437,0.09528806738475007,0.7674485280686205,31.958980232323977,77.79110850928309,-158.02644595653706,0.51953125,0.5172119140625,0.37872314453125,-0.56494140625,31.581753128136214,77.93356549762404,-69.03304297022054,0.0,,,,3,0,3,3
1788939204.3241694,4465848462.0,-9.76953125,1.1796875,1.765625,-0.01953125,0.033203125,0.078125,23.125,-8.6875,-29.625,23.125,-8.6875,-29.625,0.02691597506339653,-0.6334530295151547,0.09557015442790678,0.7673846071345746,32.13707260167696,77.78185915488825,-157.85714054977288,0.51971435546875,0.5174560546875,0.378662109375,-0.5645751953125,31.82521168347792,77.92592235720424,-68.76879734902329,0.16749451253452377,,,,3,0,3,3
1788939204.3222163,4465851915.0,-9.80859375,1.1796875,1.73046875,-0.01953125,0.033203125,0.078125,23.125,-8.6875,-29.625,23.125,-8.6875,-29.625,0.026776952319250834,-0.6335000307966029,0.09579111919431878,0.7673231179162372,32.28118343909063,77.77630770792409,-157.71978476450923,0.51971435546875,0.5174560546875,0.378662109375,-0.5645751953125,31.82521168347792,77.92592235720424,-68.76879734902329,0.20747402763451708,,,,3,0,3,3
1788939204.3241694,4465856298.0,-9.80859375,1.1796875,1.765625,-0.01953125,0.029296875,0.0703125,23.1875,-9.1875,-29.6875,23.1875,-9.1875,-29.6875,0.02662030318298088,-0.6335389788988781,0.09606895706987138,0.7672616745033732,32.45051466516174,77.76729943107867,-157.56045169519552,0.51971435546875,0.5174560546875,0.378662109375,-0.5645751953125,31.82521168347792,77.92592235720424,-68.76879734902329,0.25251751691814944,,,,3,0,3,3
1788939204.3241694,4465860304.0,-9.80859375,1.10546875,1.73046875,-0.025390625,0.021484375,0.064453125,23.1875,-9.1875,-29.6875,23.1875,-9.1875,-29.6875,0.026501306418229596,-0.6335782671650806,0.0962977473441928,0.7672046689056673,32.58920378635838,77.76116701817718,-157.43080181126368,0.51995849609375,0.51763916015625,0.37860107421875,-0.56427001953125,32.03942127467884,77.9292738099074,-68.55780893020359,0.0,,,,3,0,3,3
1788939204.3376272,4465863987.0,-9.80859375,1.10546875,1.69140625,-0.046875,0.009765625,0.06640625,23.25,-6.625,-28.375,23.25,-6.625,-28.375,0.026371167617560545,-0.6336599521072525,0.0961624393718789,0.767158661469693,32.599045001870216,77.77058479540685,-157.3991575185702,0.51995849609375,0.51763916015625,0.37860107421875,-0.56427001953125,32.03942127467884,77.9292738099074,-68.55780893020359,0.0,,,,3,0,3,3
1788939204.3464813,4465867493.0,-9.80859375,1.14453125,1.65234375,-0.046875,-0.00390625,0.07421875,23.25,-6.625,-28.375,23.25,-6.625,-28.375,0.02621705025459908,-0.6337352466596003,0.0960766379407715,0.7671124970036933,32.63365497439191,77.77677342805906,-157.34486368488973,0.520263671875,0.51763916015625,0.37860107421875,-0.56396484375,32.16618203315101,77.90604475261428,-68.38528357639981,0.0,,,,3,0,3,3
