pc_unix,dev_us,ax,ay,az,gx,gy,gz,mx_raw,my_raw,mz_raw,mx,my,mz,host_qw,host_qx,host_qy,host_qz,host_roll,host_pitch,host_yaw,chip_qw,chip_qx,chip_qy,chip_qz,chip_roll,chip_pitch,chip_yaw,diff_deg,rel_roll,rel_pitch,rel_yaw,cal_acc,cal_gyr,cal_mag,cal_rv
1788940368.1312475,1334702732.0,-7.66796875,-0.390625,5.67578125,0.03125,-0.09375,0.021484375,9.25,-8.1875,-36.3125,9.25,-8.1875,-36.3125,0.15950411900298078,-0.4476559748071953,0.057476600495257046,0.8779857656226615,-4.042328578699392,53.55299173761167,157.36621128781832,0.513427734375,0.3548583984375,0.2767333984375,-0.730712890625,-3.8496559801281593,53.394901419638344,-111.75428949832455,0.3736182859374421,,,,3,0,3,3
1788940368.132317,1334706638.0,-7.66796875,-0.390625,5.7109375,0.03515625,-0.087890625,0.015625,9.25,-8.1875,-36.3125,9.25,-8.1875,-36.3125,0.15956684366327514,-0.44747466719739454,0.05770891414795401,0.8780515507917431,-4.000362956621968,53.53581388014696,157.3817453888406,0.5135498046875,0.3546142578125,0.27630615234375,-0.73089599609375,-3.8100030258745563,53.337462221258264,-111.73126458750357,0.6207278185928354,,,,3,0,3,3
1788940368.130364,1334711068.0,-7.703125,-0.3515625,5.7109375,0.03515625,-0.087890625,0.015625,9.25,-8.1875,-36.3125,9.25,-8.1875,-36.3125,0.15961730067213778,-0.4472836148861828,0.05797923502924319,0.8781219126555908,-3.9505439181870328,53.51842157526531,157.40289189044339,0.5135498046875,0.3546142578125,0.27630615234375,-0.73089599609375,-3.8100030258745563,53.337462221258264,-111.73126458750357,0.6378332209596601,,,,3,0,3,3
1788940368.1424634,1334714374.0,-7.703125,-0.3515625,5.75,0.029296875,-0.076171875,0.005859375,12.3125,-9.25,-41.875,12.3125,-9.25,-41.875,0.1596631136527349,-0.44715070987614425,0.05816737927589345,0.8781688270396237,-3.916834208309617,53.506274821100085,157.41571581534112,0.5135498046875,0.3546142578125,0.27630615234375,-0.73089599609375,-3.8100030258745563,53.337462221258264,-111.73126458750357,0.6519211089558088,,,,3,0,2,3
1788940368.1396904,1334719057.0,-7.703125,-0.3515625,5.7109375,0.029296875,-0.068359375,-0.001953125,12.3125,-9.25,-41.875,12.3125,-9.25,-41.875,0.15974187600938727,-0.4470026411260403,0.05843029484471676,0.8782124301783171,-3.8728593329951435,53.49395327347892,157.42947855883398,0.51361083984375,0.35443115234375,0.2760009765625,-0.73101806640625,-3.783828147956072,53.29326010669886,-111.71414154794276,1.100105297948571,,,,3,0,2,3
1788940368.1440089,1334722463.0,-7.7421875,-0.3515625,5.7109375,0.021484375,-0.0546875,-0.00390625,12.3125,-9.25,-41.875,12.3125,-9.25,-41.875,0.15979369787483627,-0.446930553489602,0.058610702247606956,0.8782276698322626,-3.8439168705918596,53.489207121075374,157.43808182631204,0.51361083984375,0.35443115234375,0.2760009765625,-0.73101806640625,-3.783828147956072,53.29326010669886,-111.71414154794276,1.110567373805983,,,,3,0,2,3
1788940368.1548054,1334726446.0,-7.74609375,-0.390625,5.7109375,0.0078125,-0.037109375,-0.01171875,10.9375,-8.8125,-42.375,10.9375,-8.8125,-42.375,0.15987956452094823,-0.4469018695630965,0.05878414514860543,0.8782150466194192,-3.821213334963512,53.48957890168288,157.43838173656104,0.51361083984375,0.35430908203125,0.2757568359375,-0.731201171875,-3.7685518240859865,53.26455991783106,-111.72263395104487,0.8016969047127678,,,,3,0,2,3
1788940368.157789,1334731629.0,-7.74609375,-0.390625,5.7109375,0.0078125,-0.03125,-0.009765625,10.9375,-8.8125,-42.375,10.9375,-8.8125,-42.375,0.1599909165993955,-0.44688088261248754,0.059011464769494974,0.8781902017142573,-3.792149669813768,53.49215618071497,157.43829811804665,0.51361083984375,0.35430908203125,0.2757568359375,-0.731201171875,-3.7685518240859865,53.26455991783106,-111.72263395104487,0.8269125471987798,,,,3,0,2,3
1788940368.161724,1334734582.0,-7.7734375,-0.42578125,5.67578125,0.0078125,-0.03125,-0.009765625,11.5625,-6.9375,-42.0625,11.5625,-6.9375,-42.0625,0.15999083172796597,-0.44685668573702697,0.05886343623236264,0.8782124640712133,-3.8156292857159757,53.4854172796307,157.42726002741924,0.51361083984375,0.35430908203125,0.2757568359375,-0.731201171875,-3.7685518240859865,53.26455991783106,-111.72263395104487,0.8148274152383596,,,,3,0,2,3
1788940368.1663034,1334738488.0,-7.8125,-0.42578125,5.63671875,0.0078125,-0.017578125,-0.00390625,11.5625,-6.9375,-42.0625,11.5625,-6.9375,-42.0625,0.1599758542284538,-0.4468787718467663,0.05868955688448688,0.8782155915544341,-3.844319545040647,53.48389509614757,157.41481898931892,0.51361083984375,0.35418701171875,0.27569580078125,-0.73126220703125,-3.7737075668532385,53.245599334168176,-111.7263860460608,1.0273195262633312,,,,3,0,2,3
1788940368.1715481,1334742071.0,-7.81640625,-0.46484375,5.63671875,0.017578125,-0.01953125,0.0078125,12.125,-8.0625,-40.375,12.125,-8.0625,-40.375,0.1600249000484945,-0.44696143331708915,0.05875670162512674,0.8781600984477366,-3.84142379332996,53.49572367151084,157.4083109215752,0.51361083984375,0.35418701171875,0.27569580078125,-0.73126220703125,-3.7737075668532385,53.245599334168176,-111.7263860460608,1.0371500040888426,,,,3,0,2,3
1788940368.1755667,1334746177.0,-7.85546875,-0.50390625,5.59765625,0.03125,-0.01953125,0.015625,12.125,-8.0625,-40.375,12.125,-8.0625,-40.375,0.16007505035105868,-0.44705567008913977,0.058829182581500376,0.8780981342498394,-3.838294795965702,53.50913325490087,157.40156555420256,0.51361083984375,0.35418701171875,0.27557373046875,-0.7313232421875,-3.7590190751813646,53.23773342936958,-111.72500859284742,0.8947932432197252,,,,3,0,2,3
1788940368.1756244,1334751307.0,-7.81640625,-0.50390625,5.63671875,0.03125,-0.01953125,0.015625,12.125,-8.0625,-40.375,12.125,-8.0625,-40.375,0.16016775007009332,-0.447168341421189,0.058908320428946816,0.8780185510866771,-3.838692985881044,53.52483617679232,157.3871633093235,0.51361083984375,0.35418701171875,0.27557373046875,-0.7313232421875,-3.7590190751813646,53.23773342936958,-111.72500859284742,0.9120120640678028,,,,3,0,2,3
1788940368.1823144,1334753513.0,-7.8125,-0.46484375,5.7109375,0.046875,-0.025390625,0.029296875,8.375,-8.4375,-37.8125,8.375,-8.4375,-37.8125,0.16022473022072387,-0.44718649919987136,0.059016781460847205,0.8779916231178191,-3.8265163085057115,53.52958526619042,157.38529269057997,0.51361083984375,0.35418701171875,0.27557373046875,-0.7313232421875,-3.7590190751813646,53.23773342936958,-111.72500859284742,0.9243789889653115,,,,3,0,3,3
1788940368.1850784,1334758396.0,-7.77734375,-0.46484375,5.7109375,0.0546875,-0.025390625,0.037109375,8.375,-8.4375,-37.8125,8.375,-8.4375,-37.8125,0.1603721405631393,-0.44719897175644613,0.05928487889300829,0.8779402937135391,-3.795434788414485,53.53723777367976,157.38086113287912,0.513671875,0.354248046875,0.2752685546875,-0.7313232421875,-3.7047122905150722,53.219489837805504,-111.68548647057015,1.3086960348917365,,,,3,0,3,3
1788940368.1871693,1334761602.0,-7.81640625,-0.42578125,5.7109375,0.046875,-0.02734375,0.048828125,8.375,-8.4375,-37.8125,8.375,-8.4375,-37.8125,0.16040422262609055,-0.4472134614908183,0.05948538311493824,0.8779134891438842,-3.765546259591713,53.54394786961755,157.39100317679134,0.513671875,0.354248046875,0.2752685546875,-0.7313232421875,-3.7047122905150722,53.219489837805504,-111.68548647057015,1.320703764506458,,,,3,0,3,3
1788940368.1911044,1334765555.0,-7.7421875,-0.46484375,5.7890625,0.046875,-0.02734375,0.048828125,9.0625,-9.3125,-37.4375,9.0625,-9.3125,-37.4375,0.160455797478869,-0.4471398504756507,0.05977195141904034,0.8779220950605998,-3.718801937927955,53.541686484255436,157.40838186232224,0.513671875,0.354248046875,0.2752685546875,-0.7313232421875,-3.7047122905150722,53.219489837805504,-111.68548647057015,1.335562715302203,,,,3,0,3,3
1788940368.1965559,1334771138.0,-7.7734375,-0.42578125,5.828125,0.044921875,-0.025390625,0.0546875,9.0625,-9.3125,-37.4375,9.0625,-9.3125,-37.4375,0.1604911767949985,-0.44702718780954076,0.06018925258937616,0.8779444910714927,-3.6469809482309063,53.53786662059753,157.44084431551858,0.51373291015625,0.3543701171875,0.27496337890625,-0.73138427734375,-3.6481891444029704,53.21392553107,-111.6608608854647,0.9394023781030918,,,,3,0,3,3
1788940368.2010272,1334773644.0,-7.7734375,-0.390625,5.75,0.041015625,-0.03515625,0.0625,9.0625,-9.3125,-37.4375,9.0625,-9.3125,-37.4375,0.16048794288703028,-0.4469849759441047,0.060378979466725484,0.8779535467817726,-3.6130590568226966,53.53733488700332,157.4586077818675,0.51373291015625,0.3543701171875,0.27496337890625,-0.73138427734375,-3.6481891444029704,53.21392553107,-111.6608608854647,0.9516046679142207,,,,3,0,3,3
1788940368.205056,1334777150.0,-7.7734375,-0.390625,5.75,0.03515625,-0.033203125,0.05859375,9.0625,-9.3125,-37.4375,9.0625,-9.3125,-37.4375,0.1604858122237514,-0.4469313339020217,0.060632378415691794,0.8779637814506351,-3.56807862573623,53.536952581005856,157.48183510868958,0.513916015625,0.35443115234375,0.27459716796875,-0.7313232421875,-3.573568478546971,53.19195411508448,-111.59399171569945,1.308673597508404,,,,3,0,3,3
1788940368.2071667,1334781433.0,-7.8125,-0.3515625,5.828125,0.03125,-0.044921875,0.056640625,9.0625,-9.3125,-37.4375,9.0625,-9.3125,-37.4375,0.16047311979919462,-0.4468204553215429,0.06093365201887446,0.8780016791440691,-3.5114747540941056,53.5306215117042,157.51313029279171,0.513916015625,0.35443115234375,0.27459716796875,-0.7313232421875,-3.573568478546971,53.19195411508448,-111.59399171569945,1.321171678270987,,,,3,0,3,3
1788940368.2111018,1334785086.0,-7.77734375,-0.3515625,5.828125,0.03125,-0.044921875,0.056640625,8.4375,-7.375,-37.0,8.4375,-7.375,-37.0,0.1603869520598394,-0.4466462294750856,0.06088952247839091,0.8781091261096183,-3.5029887551281074,53.508012006614194,157.53164180867176,0.513916015625,0.35443115234375,0.27459716796875,-0.7313232421875,-3.573568478546971,53.19195411508448,-111.59399171569945,1.3079567074687841,,,,3,0,3,3
1788940368.2161438,1334788793.0,-7.77734375,-0.3515625,5.75,0.029296875,-0.044921875,0.056640625,8.4375,-7.375,-37.0,8.4375,-7.375,-37.0,0.16027688667604476,-0.4465351886595136,0.06079656794407261,0.8781921328573086,-3.503537913876392,53.492206948294175,157.54778396052217,0.51409912109375,0.3544921875,0.2742919921875,-0.7313232421875,-3.5111256362530807,53.18010253645727,-111.5483592249182,0.9105187132604702,,,,3,0,3,3
1788940368.221365,1334792575.0,-7.77734375,-0.3515625,5.75,0.02734375,-0.044921875,0.05078125,8.25,-8.1875,-36.4375,8.25,-8.1875,-36.4375,0.16027291736828864,-0.4464571800557859,0.061050620553388765,0.8782148940122455,-3.4571815480443404,53.4887654378733,157.572317621675,0.51409912109375,0.3544921875,0.2742919921875,-0.7313232421875,-3.5111256362530807,53.18010253645727,-111.5483592249182,0.9267690400309162,,,,3,0,3,3
1788940368.226027,1334796958.0,-7.77734375,-0.3515625,5.7890625,0.02734375,-0.037109375,0.046875,8.25,-8.1875,-36.4375,8.25,-8.1875,-36.4375,0.16028506759201427,-0.4463308524177494,0.06133404735148137,0.8782571388395057,-3.4050853589968164,53.479922916016534,157.59835619511247,0.5142822265625,0.3544921875,0.27398681640625,-0.7313232421875,-3.454214583026909,53.1597012133467,-111.50163102761014,0.7895641683315465,,,,3,0,3,3
1788940368.2297897,1334801941.0,-7.7734375,-0.390625,5.7890625,0.0234375,-0.044921875,0.048828125,8.25,-8.1875,-36.4375,8.25,-8.1875,-36.4375,0.16037174779185143,-0.4461727713609235,0.06159204189572278,0.8783035813324545,-3.3623083326039866,53.46617214955366,157.61055390727486,0.5142822265625,0.3544921875,0.27398681640625,-0.7313232421875,-3.454214583026909,53.1597012133467,-111.50163102761014,0.8144189955918582,,,,3,0,3,3
1788940368.2326555,1334804994.0,-7.7734375,-0.390625,5.7890625,0.0234375,-0.044921875,0.048828125,8.0,-8.5,-38.25,8.0,-8.5,-38.25,0.1604489624422073,-0.44604976573369237,0.06163117709472727,0.878349210138004,-3.3568077852131495,53.45142027383973,157.60517132348204,0.5142822265625,0.3544921875,0.27398681640625,-0.7313232421875,-3.454214583026909,53.1597012133467,-111.50163102761014,0.8195544649541529,,,,3,0,3,3
1788940368.2373388,1334808600.0,-7.74609375,-0.390625,5.75,0.029296875,-0.048828125,0.041015625,8.0,-8.5,-38.25,8.0,-8.5,-38.25,0.1605848064125944,-0.4459538557351627,0.06167453499641896,0.8783700417462715,-3.357022664446525,53.43994972084715,157.5888153061327,0.514404296875,0.35443115234375,0.273681640625,-0.7313232421875,-3.4069832817788703,53.12757212815004,-111.45693835242557,1.3458093618147944,,,,3,0,3,3
1788940368.239614,1334812307.0,-7.70703125,-0.42578125,5.75,0.029296875,-0.046875,0.041015625,8.0,-8.5,-38.25,8.0,-8.5,-38.25,0.1606848630492636,-0.44582772686137245,0.06164135745583571,0.8784180985154295,-3.3654108735509642,53.4229234502816,157.57369566262253,0.514404296875,0.35443115234375,0.273681640625,-0.7313232421875,-3.4069832817788703,53.12757212815004,-111.45693835242557,1.3461964694886364,,,,3,0,3,3
1788940368.2426908,1334816289.0,-7.66796875,-0.390625,5.7109375,0.02734375,-0.044921875,0.0390625,12.125,-7.0,-42.375,12.125,-7.0,-42.375,0.16062791004867266,-0.4457156626449233,0.06151530388615221,0.8784942173823267,-3.3761308905477447,53.40595257370074,157.57787053321837,0.5145263671875,0.35443115234375,0.27337646484375,-0.7313232421875,-3.354318356370627,53.10397173332628,-111.41348550594985,1.5217741713093782,,,,3,0,2,3
1788940368.2465339,1334821419.0,-7.625,-0.3125,5.75,0.02734375,-0.044921875,0.0390625,12.125,-7.0,-42.375,12.125,-7.0,-42.375,0.1605277346259127,-0.44551905152226007,0.061383101470263095,0.8786214975747347,-3.380123288753196,53.378396760746824,157.59245928291847,0.5145263671875,0.35443115234375,0.27337646484375,-0.7313232421875,-3.354318356370627,53.10397173332628,-111.41348550594985,1.5049062081650066,,,,3,0,2,3
1788940368.2519763,1334824225.0,-7.58984375,-0.2734375,5.75,0.03125,-0.04296875,0.0390625,11.3125,-8.75,-41.9375,11.3125,-8.75,-41.9375,0.1604989749653419,-0.4453772966652956,0.0615246578771693,0.8786887157140947,-3.3474373280535796,53.36424974610294,157.61459852853955,0.5145263671875,0.35443115234375,0.27337646484375,-0.7313232421875,-3.354318356370627,53.10397173332628,-111.41348550594985,1.5066602292902493,,,,3,0,2,3
1788940368.2519763,1334828708.0,-7.58984375,-0.234375,5.7890625,0.041015625,-0.046875,0.033203125,11.3125,-8.75,-41.9375,11.3125,-8.75,-41.9375,0.16046125378805234,-0.4451373685935581,0.06175699340366414,0.8788008778330327,-3.294326783500647,53.3400729174086,157.64952204318223,0.51470947265625,0.3543701171875,0.2730712890625,-0.73138427734375,-3.3062703307426196,53.07916054819643,-111.37951598145784,1.1837316817651737,,,,3,0,2,3
1788940368.2500231,1334832114.0,-7.546875,-0.19921875,5.828125,0.0390625,-0.03515625,0.033203125,11.3125,-8.75,-41.9375,11.3125,-8.75,-41.9375,0.16042805153013615,-0.4449659289891618,0.06191752045143088,0.8788824625524183,-3.2567779485844506,53.322677256909884,157.67508220983896,0.51470947265625,0.3543701171875,0.2730712890625,-0.73138427734375,-3.3062703307426196,53.07916054819643,-111.37951598145784,1.186535266260811,,,,3,0,2,3
1788940368.2655966,1334836797.0,-7.55078125,-0.16015625,5.90234375,0.0234375,-0.037109375,0.03125,12.4375,-10.0,-43.3125,12.4375,-10.0,-43.3125,0.16039851981183662,-0.4447761668879839,0.062172585414544033,0.8789658957169358,-3.203026994431417,53.30530216577156,157.70834228389077,0.5147705078125,0.3543701171875,0.2728271484375,-0.73138427734375,-3.2666952676306433,53.0583709402155,-111.34672858838368,1.5311298227074555,,,,3,0,2,3
1788940368.2677798,1334841980.0,-7.55078125,-0.16015625,5.90234375,0.017578125,-0.025390625,0.021484375,12.4375,-10.0,-43.3125,12.4375,-10.0,-43.3125,0.16038011952286915,-0.4445963521977932,0.062434699711043415,0.8790416424414932,-3.149576746415102,53.28929625169436,157.73980103356806,0.5147705078125,0.3543701171875,0.2728271484375,-0.73138427734375,-3.2666952676306433,53.0583709402155,-111.34672858838368,1.5398662931372489,,,,3,0,2,3
1788940368.271715,1334843357.0,-7.5859375,-0.16015625,5.90234375,0.017578125,-0.025390625,0.021484375,11.8125,-8.0625,-40.4375,11.8125,-8.0625,-40.4375,0.16036306632258668,-0.44453321756328706,0.062475657630653755,0.8790737725845689,-3.1383764913458103,53.282450993542795,157.7485493721099,0.5147705078125,0.3543701171875,0.2728271484375,-0.73138427734375,-3.2666952676306433,53.0583709402155,-111.34672858838368,1.5399029156712682,,,,3,0,2,3
1788940368.2766302,1334848239.0,-7.55078125,-0.16015625,5.90234375,0.015625,-0.015625,0.029296875,11.8125,-8.0625,-40.4375,11.8125,-8.0625,-40.4375,0.1602864674505158,-0.4443271331048267,0.06261925120585886,0.8791817084752718,-3.0983740191993934,53.26042004015594,157.78152004219228,0.514892578125,0.3543701171875,0.272705078125,-0.73138427734375,-3.240744915093556,53.052737265033294,-111.32570522155582,1.2653738113683253,,,,3,0,2,3
1788940368.2736585,1334851446.0,-7.5859375,-0.12109375,5.90234375,0.017578125,0.0,0.0234375,11.8125,-8.0625,-40.4375,11.8125,-8.0625,-40.4375,0.16023459366088275,-0.44421986124008606,0.06273411560922787,0.8792371810910287,-3.0698630315671593,53.249978503560754,157.80399294234408,0.514892578125,0.3543701171875,0.272705078125,-0.73138427734375,-3.240744915093556,53.052737265033294,-111.32570522155582,1.2673020309190517,,,,3,0,2,3
1788940368.277941,1334855399.0,-7.62890625,-0.12109375,5.98046875,0.017578125,0.0,0.0234375,8.5,-8.75,-36.8125,8.5,-8.75,-36.8125,0.16020728133259507,-0.44411624908801633,0.06293262395209748,0.8792803131803382,-3.029789079644577,53.241963172435774,157.828794752609,0.514892578125,0.3543701171875,0.272705078125,-0.73138427734375,-3.240744915093556,53.052737265033294,-111.32570522155582,1.276711585675036,,,,3,0,3,3
1788940368.2865057,1334860982.0,-7.625,-0.19921875,5.94140625,0.017578125,0.017578125,0.029296875,8.5,-8.75,-36.8125,8.5,-8.75,-36.8125,0.16017566798563887,-0.4440097452837765,0.06322204370917026,0.8793190971812372,-2.9741325347595575,53.23582504568314,157.8617834298454,0.514892578125,0.3544921875,0.2725830078125,-0.73138427734375,-3.2120000934908495,53.057775718853584,-111.31319076558546,1.1741544776922899,,,,3,0,3,3
1788940368.2917926,1334863288.0,-7.6640625,-0.19921875,5.94140625,0.01171875,0.02734375,0.03125,8.5,-8.75,-36.8125,8.5,-8.75,-36.8125,0.1601570656641709,-0.4439800130304682,0.06334293676920613,0.8793287978388744,-2.951090274784943,53.23512595674408,157.87592869114079,0.514892578125,0.3544921875,0.2725830078125,-0.73138427734375,-3.2120000934908495,53.057775718853584,-111.31319076558546,1.1813555213548905,,,,3,0,3,3
1788940368.2958775,1334867194.0,-7.703125,-0.234375,5.94140625,0.015625,0.044921875,0.029296875,8.5,-8.75,-36.8125,8.5,-8.75,-36.8125,0.16014136538754842,-0.44396276968321063,0.06356039093651114,0.8793246720813775,-2.912837745315955,53.23834914222484,157.89689123763063,0.514892578125,0.35467529296875,0.27252197265625,-0.73126220703125,-3.1802423816309613,53.06906430675583,-111.28186479846264,1.5762403654026511,,,,3,0,3,3
1788940368.2983758,1334871477.0,-7.81640625,-0.234375,5.90234375,0.0234375,0.048828125,0.04296875,8.5,-8.75,-36.8125,8.5,-8.75,-36.8125,0.16010315390353203,-0.44400420197685553,0.06386830395902231,0.8792883989263338,-2.8602549539319875,53.25121702147788,157.9268420888229,0.514892578125,0.35467529296875,0.27252197265625,-0.73126220703125,-3.1802423816309613,53.06906430675583,-111.28186479846264,1.5925406370542463,,,,3,0,3,3
1788940368.302311,1334874930.0,-7.85546875,-0.234375,5.90234375,0.0234375,0.048828125,0.04296875,7.6875,-7.9375,-37.875,7.6875,-7.9375,-37.875,0.15996111495181484,-0.44398961494160555,0.0638555857344414,0.8793225390594105,-2.849328150902357,53.24953649764277,157.95107566530726,0.514892578125,0.35467529296875,0.27252197265625,-0.73126220703125,-3.1802423816309613,53.06906430675583,-111.28186479846264,1.584635417223083,,,,3,0,3,3
1788940368.3062375,1334878836.0,-7.89453125,-0.16015625,5.90234375,0.029296875,0.060546875,0.04296875,7.6875,-7.9375,-37.875,7.6875,-7.9375,-37.875,0.15973829375128515,-0.44400943949551064,0.06398444697110695,0.8793436675692344,-2.809395961912646,53.25588947632651,157.9995009550304,0.514892578125,0.35498046875,0.27252197265625,-0.73114013671875,-3.1462489879752606,53.10337445905598,-111.26022833002246,1.4029547664011175,,,,3,0,3,3
1788940368.311312,1334882419.0,-7.93359375,-0.16015625,5.90234375,0.03125,0.068359375,0.04296875,8.25,-7.6875,-36.375,8.25,-7.6875,-36.375,0.15956651797256352,-0.44408120101184734,0.06421515471888498,0.8793217995446356,-2.7593090969967675,53.27106540078895,158.04533687012278,0.514892578125,0.35498046875,0.27252197265625,-0.73114013671875,-3.1462489879752606,53.10337445905598,-111.26022833002246,1.4100921715412327,,,,3,0,3,3
1788940368.3152394,1334886902.0,-8.0078125,-0.16015625,5.94140625,0.025390625,0.0625,0.041015625,8.25,-7.6875,-36.375,8.25,-7.6875,-36.375,0.1593436296739153,-0.4441821680812649,0.06448282568175728,0.8792916321864237,-2.6998859375216777,53.290944645178165,158.10199813019676,0.514892578125,0.35540771484375,0.2724609375,-0.73095703125,-3.0890855047499004,53.14459732203663,-111.21972860899386,1.3863228723574994,,,,3,0,3,3
1788940368.3132863,1334890955.0,-8.01171875,-0.19921875,5.98046875,0.025390625,0.0625,0.041015625,8.25,-7.6875,-36.375,8.25,-7.6875,-36.375,0.15912850043435572,-0.44419937586781916,0.06465128079879916,0.8793095283910144,-2.6538535643963868,53.29784924206072,158.1524590098239,0.514892578125,0.35540771484375,0.2724609375,-0.73095703125,-3.0890855047499004,53.14459732203663,-111.21972860899386,1.3871703947590834,,,,3,0,3,3
1788940368.3152394,1334894838.0,-8.046875,-0.19921875,5.94140625,0.021484375,0.068359375,0.044921875,9.125,-7.375,-36.9375,9.125,-7.375,-36.9375,0.15890467618032308,-0.4443417614054504,0.06465991886611298,0.8792774293994793,-2.639214097307771,53.31661276507679,158.18678039232097,0.514892578125,0.35540771484375,0.2724609375,-0.73095703125,-3.0890855047499004,53.14459732203663,-111.21972860899386,1.3786051442076772,,,,3,0,3,3
1788940368.3152394,1334898644.0,-8.08984375,-0.16015625,5.90234375,0.015625,0.048828125,0.04296875,9.125,-7.375,-36.9375,9.125,-7.375,-36.9375,0.15870743647110713,-0.44450114194161816,0.06474393339133737,0.8792263118847076,-2.615081001795501,53.339253114813914,158.2219824693014,0.514892578125,0.355712890625,0.2724609375,-0.73077392578125,-3.0517957573519054,53.174781932253524,-111.18429438153036,1.5901244839094024,,,,3,0,3,3
1788940368.3289542,1334902150.0,-8.12890625,-0.16015625,5.8671875,0.015625,0.0390625,0.03125,9.125,-7.375,-36.9375,9.125,-7.375,-36.9375,0.1585760295655715,-0.4446536049071714,0.06481145733841878,0.8791679529463904,-2.5991163175914935,53.36042725856452,158.2446607439184,0.514892578125,0.355712890625,0.2724609375,-0.73077392578125,-3.0517957573519054,53.174781932253524,-111.18429438153036,1.5905347042696436,,,,3,0,3,3
1788940368.3309073,1334906333.0,-8.16015625,-0.16015625,5.94140625,0.009765625,0.02734375,0.033203125,8.125,-9.3125,-37.625,8.125,-9.3125,-37.625,0.1585269675988841,-0.44474607484574846,0.06506291067906751,0.8791114531771099,-2.5570261481148475,53.378259913585744,158.27022843048914,0.51495361328125,0.35595703125,0.2724609375,-0.73065185546875,-3.0190445189044306,53.20377333559119,-111.15832932509028,1.3375894600480935,,,,3,0,3,3
1788940368.3269722,1334911316.0,-8.1953125,-0.12109375,5.94140625,0.005859375,0.00390625,0.033203125,8.125,-9.3125,-37.625,8.125,-9.3125,-37.625,0.15845615172521937,-0.444807712434623,0.06534375908590967,0.8790722041377685,-2.5067339618092372,53.39298145555257,158.3031636110153,0.51495361328125,0.35595703125,0.2724609375,-0.73065185546875,-3.0190445189044306,53.20377333559119,-111.15832932509028,1.3555006579823183,,,,3,0,3,3
1788940368.3309073,1334914069.0,-8.1953125,-0.16015625,5.94140625,0.005859375,0.00390625,0.033203125,12.0,-9.1875,-41.5625,12.0,-9.1875,-41.5625,0.1584084013684109,-0.4448536136135943,0.0654897396349817,0.8790467193689842,-2.480234304213004,53.40240193361197,158.3216876094099,0.51495361328125,0.35595703125,0.2724609375,-0.73065185546875,-3.0190445189044306,53.20377333559119,-111.15832932509028,1.3647511127928253,,,,3,0,3,3
1788940368.346755,1334917775.0,-8.19921875,-0.16015625,5.90234375,-0.00390625,-0.017578125,0.029296875,12.0,-9.1875,-41.5625,12.0,-9.1875,-41.5625,0.15834487586475238,-0.4448961171514153,0.06564918396254217,0.8790247606728849,-2.4499445651158793,53.411759587850824,158.34419844381856,0.5150146484375,0.3560791015625,0.27239990234375,-0.7305908203125,-2.9917209126407354,53.21384782837996,-111.1363651344567,1.2301069223353165,,,,3,0,3,3
1788940368.34282,1334922258.0,-8.1953125,-0.234375,5.90234375,-0.00390625,-0.0234375,0.033203125,12.0,-9.1875,-41.5625,12.0,-9.1875,-41.5625,0.15828623453661092,-0.4449583804019644,0.06581696090557829,0.8789912600950225,-2.4195510852187794,53.423782883460085,158.36581838778994,0.5150146484375,0.3560791015625,0.27239990234375,-0.7305908203125,-2.9917209126407354,53.21384782837996,-111.1363651344567,1.2421666896935686,,,,3,0,3,3
1788940368.346755,1334926111.0,-8.16015625,-0.234375,5.90234375,-0.00390625,-0.0234375,0.033203125,11.875,-7.4375,-42.0625,11.875,-7.4375,-42.0625,0.15817484248531005,-0.44497678517249345,0.06566674397232042,0.879013230047406,-2.435651414065838,53.42279479083096,158.37230546295746,0.5150146484375,0.3560791015625,0.27239990234375,-0.7305908203125,-2.9917209126407354,53.21384782837996,-111.1363651344567,1.2243275122423498,,,,3,0,3,3
1788940368.346755,1334930194.0,-8.234375,-0.2734375,5.94140625,-0.013671875,-0.046875,0.0390625,11.875,-7.4375,-42.0625,11.875,-7.4375,-42.0625,0.1580566718575987,-0.4449615975563652,0.0654860581147767,0.8790556531721838,-2.4547614028194076,53.41687396760576,158.37873065150012,0.51519775390625,0.35595703125,0.27227783203125,-0.73052978515625,-2.969539690549547,53.19014083074721,-111.09624133700252,1.4774973346970408,,,,3,0,3,3
1788940368.361439,1334942036.0,-8.16015625,-0.42578125,5.90234375,-0.005859375,-0.060546875,0.052734375,11.75,-7.5,-42.8125,11.75,-7.5,-42.8125,0.15779139435233505,-0.4447820464004697,0.06497620296106915,0.8792319944797949,-2.5086322167973627,53.38281234741781,158.3900477732447,0.51544189453125,0.3558349609375,0.2720947265625,-0.73052978515625,-2.937578993548245,53.16775433291398,-111.05942484458575,1.1019029791141934,,,,3,0,2,3
1788940368.3686237,1334945443.0,-8.1953125,-0.42578125,5.8671875,-0.017578125,-0.07421875,0.06640625,12.5625,-6.5625,-39.4375,12.5625,-6.5625,-39.4375,0.15769076936545023,-0.4447312303226089,0.0648310146121386,0.8792864684373527,-2.521785752006898,53.37322945768096,158.39763573060407,0.51544189453125,0.3558349609375,0.2720947265625,-0.73052978515625,-2.937578993548245,53.16775433291398,-111.05942484458575,1.0831481955470197,,,,3,0,2,3
1788940368.3755898,1334949149.0,-8.16015625,-0.42578125,5.8671875,-0.005859375,-0.072265625,0.07421875,12.5625,-6.5625,-39.4375,12.5625,-6.5625,-39.4375,0.15757905553878393,-0.4446693185557243,0.06469511454197055,0.8793478154547801,-2.5319316417844533,53.36250987382465,158.40832437310098,0.51580810546875,0.35565185546875,0.2718505859375,-0.73046875,-2.8909795446169313,53.13302492073201,-110.99428842062382,0.9180727681229585,,,,3,0,2,3
1788940368.378742,1334952932.0,-8.1953125,-0.390625,5.828125,-0.001953125,-0.0703125,0.0859375,8.5625,-9.625,-36.5625,8.5625,-9.625,-36.5625,0.15750152220924213,-0.444633766584403,0.06486650424925003,0.8793670568887718,-2.495012113156562,53.36236987843872,158.4371129499064,0.51580810546875,0.35565185546875,0.2718505859375,-0.73046875,-2.8909795446169313,53.13302492073201,-110.99428842062382,0.9285856318642594,,,,3,0,3,3
1788940368.378742,1334957614.0,-8.16015625,-0.42578125,5.8671875,0.005859375,-0.072265625,0.08984375,8.5625,-9.625,-36.5625,8.5625,-9.625,-36.5625,0.1574272313166719,-0.44457640246699076,0.06509552357003026,0.8793924391422859,-2.4478139983136424,53.36084812772422,158.47083459018523,0.51617431640625,0.35552978515625,0.271484375,-0.7303466796875,-2.8181188380322864,53.090636004630674,-110.90190949840671,1.4325639959721683,,,,3,0,3,3
1788940368.374807,1334961997.0,-8.15625,-0.3125,5.828125,0.0,-0.0703125,0.09765625,8.5625,-9.625,-36.5625,8.5625,-9.625,-36.5625,0.15730344554887604,-0.4445191797179337,0.06533083350658286,0.8794260668610422,-2.3952459823331984,53.35961616928607,158.5136813546701,0.51617431640625,0.35552978515625,0.271484375,-0.7303466796875,-2.8181188380322864,53.090636004630674,-110.90190949840671,1.4411528740075719,,,,3,0,3,3
1788940368.378742,1334964574.0,-8.15625,-0.3515625,5.90234375,0.0,-0.0703125,0.09765625,7.4375,-8.375,-37.5625,7.4375,-8.375,-37.5625,0.1572178752959174,-0.44451445451359994,0.06531771493573493,0.8794447313683154,-2.3897381487541374,53.35894188743001,158.52769343107505,0.51617431640625,0.35552978515625,0.271484375,-0.7303466796875,-2.8181188380322864,53.090636004630674,-110.90190949840671,1.436489294690288,,,,3,0,3,3
1788940368.394443,1334969457.0,-8.15625,-0.3125,5.90234375,-0.00390625,-0.0625,0.09765625,7.4375,-8.375,-37.5625,7.4375,-8.375,-37.5625,0.157030992471276,-0.4445331758238921,0.06532437712449114,0.8794681624417726,-2.373086723091915,53.361960325569875,158.5601110113927,0.5166015625,0.35540771484375,0.2711181640625,-0.73028564453125,-2.7444448343050674,53.055533413407936,-110.82045615397548,1.097084056263815,,,,3,0,3,3
1788940368.394443,1334972839.0,-8.19921875,-0.3125,5.90234375,-0.013671875,-0.05859375,0.0859375,7.6875,-8.4375,-37.9375,7.6875,-8.4375,-37.9375,0.15690943715990482,-0.4445577205545105,0.06532016553299368,0.8794777641306697,-2.364217215948831,53.365273523729776,158.58004959322113,0.5166015625,0.35540771484375,0.2711181640625,-0.73028564453125,-2.7444448343050674,53.055533413407936,-110.82045615397548,1.0904806773926745,,,,3,0,3,3
1788940368.406751,1334976646.0,-8.125,-0.3515625,5.94140625,-0.013671875,-0.0546875,0.08984375,7.6875,-8.4375,-37.9375,7.6875,-8.4375,-37.9375,0.15680279001708458,-0.4445663145621395,0.06524394062972845,0.8794980984690073,-2.367968861711684,53.36482794177829,158.5921000889098,0.51702880859375,0.35528564453125,0.2708740234375,-0.7301025390625,-2.6821913862868083,53.02416402493907,-110.7264320147847,1.3452769673016534,,,,3,0,3,3
1788940368.4062376,1334981629.0,-8.12890625,-0.3515625,5.90234375,-0.01953125,-0.044921875,0.08203125,7.6875,-8.4375,-37.9375,7.6875,-8.4375,-37.9375,0.15665779663931276,-0.4446197711402181,0.06516229458114853,0.8795029671514788,-2.3712178152048375,53.369999653118064,158.60875223471618,0.51702880859375,0.35528564453125,0.2708740234375,-0.7301025390625,-2.6821913862868083,53.02416402493907,-110.7264320147847,1.3342425433861875,,,,3,0,3,3
1788940368.4101727,1334984682.0,-8.125,-0.2734375,5.828125,-0.01953125,-0.044921875,0.08203125,8.0625,-7.4375,-37.4375,8.0625,-7.4375,-37.4375,0.1565080091491042,-0.4446347745569336,0.06507902635547907,0.8795282148149153,-2.3726464152596773,53.37031250009487,158.6275096560618,0.51702880859375,0.35528564453125,0.2708740234375,-0.7301025390625,-2.6821913862868083,53.02416402493907,-110.7264320147847,1.3218688910939254,,,,3,0,3,3
1788940368.4101727,1334988588.0,-8.125,-0.19921875,5.90234375,-0.01171875,-0.041015625,0.076171875,8.0625,-7.4375,-37.4375,8.0625,-7.4375,-37.4375,0.15628396601615052,-0.44463939155564497,0.06498298390156312,0.8795728197520305,-2.36925573334206,53.369218435088506,158.65853910831936,0.51739501953125,0.355224609375,0.2706298828125,-0.72998046875,-2.6216964430549856,53.00225172149456,-110.65042240858931,1.1895628869838812,,,,3,0,3,3
1788940368.403532,1334992847.0,-8.0859375,-0.12109375,5.98046875,-0.0234375,-0.037109375,0.072265625,7.8125,-8.8125,-37.25,7.8125,-8.8125,-37.25,0.1561182700569961,-0.44457692387226566,0.06520614860085278,0.8796173046838767,-2.314816013252972,53.367087578976815,158.7078878213548,0.51739501953125,0.355224609375,0.2706298828125,-0.72998046875,-2.6216964430549856,53.00225172149456,-110.65042240858931,1.1946183589733939,,,,3,0,3,3
1788940368.4265203,1334997154.0,-8.0078125,-0.16015625,5.98046875,-0.052734375,-0.033203125,0.0625,7.8125,-8.8125,-37.25,7.8125,-8.8125,-37.25,0.15596175333185924,-0.4444985784205977,0.06536792461228715,0.8796726548617971,-2.270747862699596,53.36146368579552,158.75118964864993,0.51776123046875,0.3551025390625,0.2705078125,-0.7298583984375,-2.5844291271784603,52.98387020144713,-110.58809693262414,0.9266312974945687,,,,3,0,3,3
1788940368.4225852,1335002136.0,-7.96875,-0.19921875,5.98046875,-0.083984375,-0.025390625,0.0546875,7.8125,-8.8125,-37.25,7.8125,-8.8125,-37.25,0.1557948144969541,-0.4444124877993203,0.06546859017057649,0.8797382452553463,-2.235646833981973,53.35343571314112,158.79158163848228,0.51776123046875,0.3551025390625,0.2705078125,-0.7298583984375,-2.5844291271784603,52.98387020144713,-110.58809693262414,0.9207137949552273,,,,3,0,3,3
1788940368.4265203,1335003713.0,-7.9296875,-0.234375,5.90234375,-0.083984375,-0.025390625,0.0546875,7.75,-10.8125,-38.1875,7.75,-10.8125,-38.1875,0.15575332826497243,-0.4444086922755148,0.0654998905991332,0.8797451786147237,-2.2266322118264936,53.35380073199202,158.80149793435112,0.51776123046875,0.3551025390625,0.2705078125,-0.7298583984375,-2.5844291271784603,52.98387020144713,-110.58809693262414,0.920824527611029,,,,3,0,3,3
1788940368.4402454,1335008596.0,-7.85546875,-0.2734375,5.8671875,-0.1015625,-0.03515625,0.041015625,7.75,-10.8125,-38.1875,7.75,-10.8125,-38.1875,0.1556512142120272,-0.44438199016698476,0.06553513647904523,0.8797741143135688,-2.210674989513466,53.351528639487576,158.8231161769516,0.51812744140625,0.35491943359375,0.2706298828125,-0.7296142578125,-2.581571065411442,52.972835685440025,-110.52655522694737,1.2144772607669436,,,,3,0,3,3
1788940368.4382489,1335011802.0,-7.7734375,-0.2734375,5.828125,-0.107421875,-0.037109375,0.02734375,7.75,-10.8125,-38.1875,7.75,-10.8125,-38.1875,0.15560126820458367,-0.444359832006941,0.06553949319552835,0.8797938166772722,-2.2046315724886343,53.348968796060205,158.83296325851882,0.51812744140625,0.35491943359375,0.2706298828125,-0.7296142578125,-2.581571065411442,52.972835685440025,-110.52655522694737,1.2112495473732274,,,,3,0,3,3
1788940368.442242,1335015755.0,-7.703125,-0.3515625,5.8671875,-0.107421875,-0.037109375,0.02734375,11.25,-7.3125,-41.8125,11.25,-7.3125,-41.8125,0.15546628431259915,-0.4442803586804754,0.0651824592347093,0.8798843357742525,-2.2489936540870263,53.330916806246385,158.83018228384034,0.51812744140625,0.35491943359375,0.2706298828125,-0.7296142578125,-2.581571065411442,52.972835685440025,-110.52655522694737,1.1729303683259689,,,,3,0,3,3
1788940368.4469569,1335021138.0,-7.625,-0.390625,5.94140625,-0.099609375,-0.04296875,0.009765625,11.25,-7.3125,-41.8125,11.25,-7.3125,-41.8125,0.15534715765018542,-0.4441250802192931,0.06471578546480135,0.8800182048354959,-2.3097519613381525,53.30071847834307,158.81845274116094,0.5184326171875,0.3544921875,0.2708740234375,-0.7294921875,-2.6291697139314185,52.94509310551612,-110.50581032322353,1.3515244955129417,,,,3,0,3,3
1788940368.4497604,1335023744.0,-7.5859375,-0.390625,5.98046875,-0.09375,-0.046875,-0.00390625,11.25,-7.3125,-41.8125,11.25,-7.3125,-41.8125,0.15530934402667523,-0.4440375489190863,0.06449570468868727,0.8800852043323097,-2.3393768431522926,53.28463257940202,158.81025985779354,0.5184326171875,0.3544921875,0.2708740234375,-0.7294921875,-2.6291697139314185,52.94509310551612,-110.50581032322353,1.3322249988618724,,,,3,0,3,3
1788940368.4567266,1335027550.0,-7.51171875,-0.390625,6.01953125,-0.095703125,-0.037109375,-0.01171875,11.25,-7.3125,-41.8125,11.25,-7.3125,-41.8125,0.15526510781918912,-0.44391602771998234,0.06418165367925953,0.880177267349142,-2.382620065528016,53.262079240171076,158.79678193254477,0.5186767578125,0.3541259765625,0.2711181640625,-0.72943115234375,-2.6783712563729467,52.926840671159134,-110.50291587584603,1.1538865038494992,,,,3,0,3,3
1788940368.4562814,1335031680.0,-7.47265625,-0.390625,6.01953125,-0.095703125,-0.037109375,-0.01171875,11.25,-7.3125,-41.8125,11.25,-7.3125,-41.8125,0.15521737477790146,-0.44378035690532236,0.06384616641791419,0.8802784948104646,-2.4284893675617525,53.23725286207807,158.78271267869772,0.5186767578125,0.3541259765625,0.2711181640625,-0.72943115234375,-2.6783712563729467,52.926840671159134,-110.50291587584603,1.1205128977055558,,,,3,0,3,3
1788940368.458869,1335035286.0,-7.43359375,-0.3515625,6.01953125,-0.103515625,-0.03515625,-0.025390625,11.125,-7.0625,-42.875,11.125,-7.0625,-42.875,0.15517926975091043,-0.4436705422527631,0.06352716362231922,0.8803636428538019,-2.4735343296042704,53.216039102281066,158.76740843625436,0.5186767578125,0.3541259765625,0.2711181640625,-0.72943115234375,-2.6783712563729467,52.926840671159134,-110.50291587584603,1.090520852558966,,,,3,0,2,3
1788940368.4656398,1335039193.0,-7.39453125,-0.3515625,6.05859375,-0.111328125,-0.02734375,-0.037109375,11.125,-7.0625,-42.875,11.125,-7.0625,-42.875,0.1551514090067373,-0.44356269200009146,0.06316937591710724,0.8804486404641098,-2.5259755913925437,53.19412783289675,158.74714152082237,0.518798828125,0.35369873046875,0.27142333984375,-0.72943115234375,-2.753264523226799,52.9039931249829,-110.52592946065772,1.1641369385659504,,,,3,0,2,3
1788940368.477967,1335043175.0,-7.39453125,-0.3515625,6.05859375,-0.1171875,-0.021484375,-0.04296875,12.125,-8.625,-40.8125,12.125,-8.625,-40.8125,0.1551672954384105,-0.4434332614196863,0.06291253213058075,0.8805294239228737,-2.564464050147885,53.17175780263421,158.72828099653407,0.518798828125,0.35369873046875,0.27142333984375,-0.72943115234375,-2.753264523226799,52.9039931249829,-110.52592946065772,1.1430663826292897,,,,3,0,2,3
1788940368.473511,1335047658.0,-7.35546875,-0.42578125,6.05859375,-0.11328125,-0.013671875,-0.056640625,12.125,-8.625,-40.8125,12.125,-8.625,-40.8125,0.15522643111760653,-0.443308421117564,0.06259570745309677,0.8806044380181091,-2.6168371980094993,53.14841633006583,158.69693202208595,0.51885986328125,0.353271484375,0.27191162109375,-0.72943115234375,-2.8584680680141785,52.89606552864796,-110.57392108223762,1.0075626329300944,,,,3,0,2,3
1788940368.475739,1335051611.0,-7.35546875,-0.390625,6.09375,-0.11328125,-0.013671875,-0.056640625,12.125,-8.625,-40.8125,12.125,-8.625,-40.8125,0.15527121628978752,-0.44319506064527703,0.06233101215325918,0.88067237525397,-2.659762851849105,53.12778362384187,158.67191031760598,0.51885986328125,0.353271484375,0.27191162109375,-0.72943115234375,-2.8584680680141785,52.89606552864796,-110.57392108223762,0.9854277594638265,,,,3,0,2,3
1788940368.477967,1335055018.0,-7.390625,-0.390625,6.1328125,-0.115234375,-0.01171875,-0.064453125,7.875,-11.1875,-37.5,7.875,-11.1875,-37.5,0.1553507676329225,-0.4431429252720769,0.062214595588808985,0.8806928130017238,-2.683716436851015,53.11823891472039,158.6506247373935,0.51885986328125,0.353271484375,0.27191162109375,-0.72943115234375,-2.8584680680141785,52.89606552864796,-110.57392108223762,0.9801425926709498,,,,3,0,3,3
1788940368.477967,1335058924.0,-7.46875,-0.3515625,6.09375,-0.099609375,-0.0078125,-0.0625,7.875,-11.1875,-37.5,7.875,-11.1875,-37.5,0.1554486068988034,-0.4430983419849896,0.06212977580511332,0.8807039689372251,-2.704327409212388,53.11033136139528,158.62845337523424,0.518798828125,0.35284423828125,0.27239990234375,-0.7294921875,-2.974966636426296,52.88592566928815,-110.64160736758988,1.0879329050190472,,,,3,0,3,3
1788940368.4876802,1335062807.0,-7.5078125,-0.3125,6.05859375,-0.09765625,-0.00390625,-0.060546875,8.5625,-9.1875,-36.5,8.5625,-9.1875,-36.5,0.15552697129524573,-0.44302582760347076,0.06201720116601244,0.8807345479970239,-2.7266310815457544,53.09831485472867,158.60845228054532,0.518798828125,0.35284423828125,0.27239990234375,-0.7294921875,-2.974966636426296,52.88592566928815,-110.64160736758988,1.0824320288482503,,,,3,0,3,3
1788940368.4896479,1335066660.0,-7.62890625,-0.234375,6.01953125,-0.09765625,-0.00390625,-0.060546875,8.5625,-9.1875,-36.5,8.5625,-9.1875,-36.5,0.15559056872986737,-0.44298065365534756,0.0619513994336316,0.8807506681902728,-2.7410796195342426,53.090884130721875,158.59378708708135,0.518798828125,0.35284423828125,0.27239990234375,-0.7294921875,-2.974966636426296,52.88592566928815,-110.64160736758988,1.0804708806686496,,,,3,0,3,3
1788940368.4896479,1335070566.0,-7.7421875,-0.16015625,6.01953125,-0.1015625,-0.001953125,-0.052734375,8.5625,-9.1875,-36.5,8.5625,-9.1875,-36.5,0.1556199355199855,-0.4429627762152366,0.06190943615725994,0.8807574219222544,-2.749800646092941,53.087551745586076,158.58597374554418,0.518798828125,0.3525390625,0.2728271484375,-0.7294921875,-3.064273934457854,52.88574172891213,-110.68751949495221,1.0086392698192488,,,,3,0,3,3
1788940368.4896479,1335074549.0,-7.77734375,-0.16015625,6.01953125,-0.091796875,0.0078125,-0.0625,9.5625,-5.3125,-35.5625,9.5625,-5.3125,-35.5625,0.15558813925027978,-0.4429362823585226,0.06154609144069806,0.8808018274977748,-2.8061573570962115,53.07569220606682,158.56317333850276,0.518798828125,0.3525390625,0.2728271484375,-0.7294921875,-3.064273934457854,52.88574172891213,-110.68751949495221,0.9735676136224062,,,,3,0,3,3
1788940368.5055468,1335078055.0,-7.8515625,-0.08203125,6.05859375,-0.09375,-0.005859375,-0.064453125,9.5625,-5.3125,-35.5625,9.5625,-5.3125,-35.5625,0.15554035032681096,-0.44288514179436067,0.06123819162226807,0.8808574427708699,-2.8508377929355255,53.06210464512922,158.54853998971328,0.5186767578125,0.35223388671875,0.27325439453125,-0.72955322265625,-3.164897473157241,52.88330600744287,-110.75314646555847,1.0984060202690864,,,,3,0,3,3
1788940368.5035791,1335082038.0,-7.93359375,-0.08203125,6.01953125,-0.083984375,-0.0078125,-0.068359375,8.5,-8.8125,-37.1875,8.5,-8.8125,-37.1875,0.15557907466724283,-0.4428826138071643,0.06122502101728247,0.8808527906037715,-2.856256250421858,53.06134862229002,158.5408680788317,0.5186767578125,0.35223388671875,0.27325439453125,-0.72955322265625,-3.164897473157241,52.88330600744287,-110.75314646555847,1.0997722635008411,,,,3,0,3,3
1788940368.5055468,1335085991.0,-7.93359375,-0.08203125,6.01953125,-0.083984375,-0.0078125,-0.068359375,8.5,-8.8125,-37.1875,8.5,-8.8125,-37.1875,0.15561740750161804,-0.4428801487344059,0.06121195453052145,0.8808481668040293,-2.8616261600417445,53.06060390516025,158.53327019474202,0.5186767578125,0.35223388671875,0.27325439453125,-0.72955322265625,-3.164897473157241,52.88330600744287,-110.75314646555847,1.101141440500045,,,,3,0,3,3
1788940368.5055468,1335089897.0,-7.97265625,-0.12109375,5.98046875,-0.087890625,-0.015625,-0.06640625,8.5,-8.8125,-37.1875,8.5,-8.8125,-37.1875,0.1556545983606676,-0.44288909169487617,0.061193345955774366,0.8808383920320478,-2.8683172941648216,53.061162263656,158.5250009917799,0.51861572265625,0.35186767578125,0.273681640625,-0.7296142578125,-3.2669792624146647,52.875559723893915,-110.81469190059761,1.1323199189748954,,,,3,0,3,3
1788940368.5123544,1335093880.0,-7.9296875,-0.12109375,5.94140625,-0.095703125,-0.021484375,-0.06640625,8.1875,-8.25,-36.8125,8.1875,-8.25,-36.8125,0.1556618455544078,-0.4428860279324188,0.0611572422550911,0.8808411592452935,-2.8747935902296264,53.05989433396731,158.520953355536,0.51861572265625,0.35186767578125,0.273681640625,-0.7296142578125,-3.2669792624146647,52.875559723893915,-110.81469190059761,1.1297010711479942,,,,3,0,3,3
1788940368.5212085,1335098363.0,-7.96875,-0.12109375,5.90234375,-0.08984375,-0.03515625,-0.060546875,8.1875,-8.25,-36.8125,8.1875,-8.25,-36.8125,0.15566442434280806,-0.44288765620774395,0.06112236505276959,0.880842305672922,-2.880869323976343,53.05925949966082,158.51763887780226,0.5185546875,0.35150146484375,0.2740478515625,-0.729736328125,-3.3633899497416717,52.865860959375844,-110.88253096515606,0.7710403728286584,,,,3,0,3,3
1788940368.5192409,1335101946.0,-8.01171875,-0.08203125,5.8671875,-0.099609375,-0.044921875,-0.052734375,8.25,-6.625,-38.375,8.25,-6.625,-38.375,0.15553015116412622,-0.44289075497386804,0.060828605406505074,0.8808848006418553,-2.9180970924172223,53.053092582937865,158.5171270255282,0.5185546875,0.35150146484375,0.2740478515625,-0.729736328125,-3.3633899497416717,52.865860959375844,-110.88253096515606,0.7200857465052801,,,,3,0,3,3
1788940368.5212085,1335106022.0,-7.96875,-0.08203125,5.7890625,-0.099609375,-0.044921875,-0.052734375,8.25,-6.625,-38.375,8.25,-6.625,-38.375,0.15538556205439716,-0.44291787225955664,0.06051179650091413,0.8809185024860916,-2.9593096747290626,53.04943077703712,158.51565433507156,0.5185546875,0.35150146484375,0.2740478515625,-0.729736328125,-3.3633899497416717,52.865860959375844,-110.88253096515606,0.663858759442513,,,,3,0,3,3
1788940368.533361,1335109629.0,-8.01171875,-0.12109375,5.828125,-0.09765625,-0.06640625,-0.04296875,8.25,-6.625,-38.375,8.25,-6.625,-38.375,0.1552562387388897,-0.44290689590001264,0.060218100876627476,0.8809669472935296,-2.996327801391281,53.04149443300888,158.51482023505199,0.5185546875,0.35101318359375,0.27435302734375,-0.72979736328125,-3.4547177122662562,52.83234357659637,-110.92403415214464,1.2683926806297272,,,,3,0,3,3
1788940368.537296,1335113988.0,-7.97265625,-0.19921875,5.7890625,-0.095703125,-0.087890625,-0.0234375,12.375,-8.1875,-41.0625,12.375,-8.1875,-41.0625,0.1551899201373873,-0.4428716232105775,0.06014014664014601,0.8810016894448508,-3.0019631873489843,53.035437988479224,158.52134343663525,0.5185546875,0.35101318359375,0.27435302734375,-0.72979736328125,-3.4547177122662562,52.83234357659637,-110.92403415214464,1.2586432145903246,,,,3,0,3,3
1788940368.5457695,1335117494.0,-7.9296875,-0.234375,5.7890625,-0.08984375,-0.103515625,-0.001953125,12.375,-8.1875,-41.0625,12.375,-8.1875,-41.0625,0.1551176874068614,-0.4428173576470695,0.06009791622401854,0.8810445682742422,-3.000333318572012,53.02787024475362,158.53246965643552,0.51873779296875,0.35040283203125,0.2745361328125,-0.7298583984375,-3.5271383261774796,52.779489468941215,-110.93941528369065,1.5284556155323497,,,,3,0,3,3
1788940368.5438163,1335121524.0,-7.890625,-0.2734375,5.7109375,-0.08984375,-0.103515625,-0.001953125,12.375,-8.1875,-41.0625,12.375,-8.1875,-41.0625,0.1550468090640003,-0.44277701693322546,0.060015503503865815,0.8810829357182915,-3.0060927844527323,53.021089478741786,158.53961041134352,0.51873779296875,0.35040283203125,0.2745361328125,-0.7298583984375,-3.5271383261774796,52.779489468941215,-110.93941528369065,1.5194534521656313,,,,3,0,3,3
1788940368.5460243,1335125130.0,-7.9296875,-0.2734375,5.7109375,-0.080078125,-0.12890625,0.021484375,12.3125,-7.8125,-41.3125,12.3125,-7.8125,-41.3125,0.15494157239842896,-0.442711493005301,0.05991727096242352,0.8811410578018342,-3.0104015076156254,53.01089175598431,158.55235997868516,0.51873779296875,0.35040283203125,0.2745361328125,-0.7298583984375,-3.5271383261774796,52.779489468941215,-110.93941528369065,1.5077291812816267,,,,3,0,3,3
1788940368.5529904,1335129036.0,-7.8515625,-0.3125,5.75,-0.06640625,-0.150390625,0.05078125,12.3125,-7.8125,-41.3125,12.3125,-7.8125,-41.3125,0.15480697809079275,-0.4426011005745901,0.059832816096049644,0.8812259071444589,-3.0079283969368777,52.995494904417164,158.5729583655233,0.5191650390625,0.34979248046875,0.2744140625,-0.72991943359375,-3.5392862685210726,52.7094136379898,-110.90588133952177,1.364896201737931,,,,3,0,3,3
1788940368.552939,1335132819.0,-7.89453125,-0.3125,5.67578125,-0.060546875,-0.169921875,0.0859375,10.6875,-7.625,-43.625,10.6875,-7.625,-43.625,0.15459085493079996,-0.4424309511870652,0.05964272924337203,0.8813621649763932,-3.013309030362069,52.97037599167053,158.601377956091,0.5191650390625,0.34979248046875,0.2744140625,-0.72991943359375,-3.5392862685210726,52.7094136379898,-110.90588133952177,1.33731916354249,,,,3,0,2,3
1788940368.5617187,1335137702.0,-7.8515625,-0.3515625,5.7109375,-0.04296875,-0.181640625,0.111328125,10.6875,-7.625,-43.625,10.6875,-7.625,-43.625,0.1542930372458312,-0.44215338693098577,0.059418087638344184,0.8815687902508327,-3.0126997415034844,52.93125362767518,158.6450952080095,0.519775390625,0.34918212890625,0.2740478515625,-0.72991943359375,-3.5011605241594697,52.62091691418896,-110.82055776974143,1.3161829431710486,,,,3,0,2,3
1788940368.5639136,1335140879.0,-7.890625,-0.390625,5.7890625,-0.04296875,-0.181640625,0.111328125,10.6875,-7.625,-43.625,10.6875,-7.625,-43.625,0.15411016742938086,-0.4419595725619038,0.059255994327202244,0.8817088633171848,-3.0153255596140163,52.903734814173426,158.67084371738736,0.519775390625,0.34918212890625,0.2740478515625,-0.72991943359375,-3.5011605241594697,52.62091691418896,-110.82055776974143,1.2907166945483566,,,,3,0,2,3
1788940368.562202,1335144861.0,-7.890625,-0.390625,5.75,-0.03515625,-0.193359375,0.13671875,11.125,-8.125,-40.8125,11.125,-8.125,-40.8125,0.15389234728677761,-0.44175388247084213,0.059269671222995805,0.8818490567220794,-2.9854081136685497,52.87899988531569,158.71709686376707,0.519775390625,0.34918212890625,0.2740478515625,-0.72991943359375,-3.5011605241594697,52.62091691418896,-110.82055776974143,1.2775285730512789,,,,3,0,2,3
1788940368.5689728,1335148868.0,-7.8515625,-0.46484375,5.7890625,-0.033203125,-0.193359375,0.16015625,11.125,-8.125,-40.8125,11.125,-8.125,-40.8125,0.15367648353771843,-0.44153276575669004,0.05923660949337665,0.8819996481101671,-2.9627640377663247,52.85121526234466,158.75979014622877,0.5206298828125,0.34857177734375,0.2734375,-0.7298583984375,-3.409193144375914,52.517152244125086,-110.68101133448741,1.0932940626569847,,,,3,0,2,3
1788940368.573808,1335152550.0,-7.8125,-0.46484375,5.75,-0.01171875,-0.19140625,0.19140625,8.0,-7.0,-37.6875,8.0,-7.0,-37.6875,0.1533848465330394,-0.44127408956141806,0.05915992120925836,0.8821849978651259,-2.9392723779370704,52.817944563181264,158.8133744279728,0.5206298828125,0.34857177734375,0.2734375,-0.7298583984375,-3.409193144375914,52.517152244125086,-110.68101133448741,1.0616718276545003,,,,3,0,3,3
1788940368.5759904,1335156304.0,-7.77734375,-0.54296875,5.75,-0.01171875,-0.19140625,0.19140625,8.0,-7.0,-37.6875,8.0,-7.0,-37.6875,0.15310429689486826,-0.4409980814355495,0.05907390223871532,0.8823774932061579,-2.9175950663775265,52.78224263907403,158.86486406376343,0.5206298828125,0.34857177734375,0.2734375,-0.7298583984375,-3.409193144375914,52.517152244125086,-110.68101133448741,1.0307571792200114,,,,3,0,3,3
1788940368.5847206,1335160410.0,-7.8125,-0.50390625,5.7109375,0.0,-0.19140625,0.208984375,8.0,-7.0,-37.6875,8.0,-7.0,-37.6875,0.15276582819745066,-0.4407162539674585,0.05903761740263057,0.8825793703432332,-2.8826000766545854,52.74716096076388,158.93041684695712,0.52154541015625,0.34814453125,0.272705078125,-0.72967529296875,-3.2737011006270054,52.42173932593194,-110.50103690573876,1.1143954108982428,,,,3,0,3,3
1788940368.5847206,1335164193.0,-7.77734375,-0.46484375,5.7890625,0.015625,-0.1875,0.22265625,7.5,-8.75,-37.3125,7.5,-8.75,-37.3125,0.1525348346996542,-0.44047204595420253,0.059270056468226445,0.8827256433016553,-2.814137066259394,52.7226935645081,158.99743419934893,0.52154541015625,0.34814453125,0.272705078125,-0.72967529296875,-3.2737011006270054,52.42173932593194,-110.50103690573876,1.1140773172969616,,,,3,0,3,3
1788940368.5847206,1335168675.0,-7.7734375,-0.42578125,5.828125,0.0390625,-0.17578125,0.23828125,7.5,-8.75,-37.3125,7.5,-8.75,-37.3125,0.15225269219165372,-0.4401771074853072,0.05964428263275455,0.8828962517280761,-2.7158828548873717,52.695269098723514,159.08623178648475,0.5225830078125,0.34783935546875,0.271728515625,-0.72943115234375,-3.082181141040168,52.321329732308705,-110.27601082611442,1.251933951765214,,,,3,0,3,3
1788940368.5986292,1335172258.0,-7.8125,-0.3515625,5.7890625,0.0546875,-0.162109375,0.236328125,8.25,-7.25,-36.3125,8.25,-7.25,-36.3125,0.15195749252177862,-0.44000160870623534,0.05981487293804102,0.8830230380787494,-2.655249328387848,52.6780955785807,159.15672955128548,0.5225830078125,0.34783935546875,0.271728515625,-0.72943115234375,-3.082181141040168,52.321329732308705,-110.27601082611442,1.2439824603442522,,,,3,0,3,3
1788940368.6006258,1335176611.0,-7.77734375,-0.3125,5.828125,0.0546875,-0.162109375,0.236328125,8.25,-7.25,-36.3125,8.25,-7.25,-36.3125,0.15159230274853283,-0.4397875822352456,0.060018446802609,0.8831786015877404,-2.58168511253076,52.65701560214111,159.243152688116,0.5225830078125,0.34783935546875,0.271728515625,-0.72943115234375,-3.082181141040168,52.321329732308705,-110.27601082611442,1.235975626695026,,,,3,0,3,3
1788940368.6006258,1335180718.0,-7.74609375,-0.234375,5.90234375,0.05078125,-0.142578125,0.23046875,8.25,-7.25,-36.3125,8.25,-7.25,-36.3125,0.15108772689769143,-0.43944887063585314,0.06040539020087507,0.8834072547316111,-2.4610000179161915,52.62482107933094,159.37228662164844,0.5235595703125,0.34771728515625,0.27069091796875,-0.72918701171875,-2.8703726872633886,52.23670546244138,-110.05127582036896,1.151496589715007,,,,3,0,3,3
1788940368.6006258,1335184300.0,-7.74609375,-0.234375,5.90234375,0.060546875,-0.12890625,0.2109375,8.625,-6.6875,-35.875,8.625,-6.6875,-35.875,0.1507476905857315,-0.439198473534454,0.060468850271071226,0.8835855095999304,-2.4114045602908525,52.59578092213987,159.44427091020776,0.5235595703125,0.34771728515625,0.27069091796875,-0.72918701171875,-2.8703726872633886,52.23670546244138,-110.05127582036896,1.1297780629477703,,,,3,0,3,3
1788940368.616452,1335187807.0,-7.703125,-0.2734375,5.94140625,0.05078125,-0.11328125,0.193359375,8.625,-6.6875,-35.875,8.625,-6.6875,-35.875,0.15048577201833382,-0.438937050186358,0.06051132791554786,0.8837571372201991,-2.3715231265882997,52.5646457824526,159.501480045911,0.52435302734375,0.34765625,0.26983642578125,-0.72894287109375,-2.69158025508783,52.16889737613417,-109.85877090685462,1.2838299578378543,,,,3,0,3,3
1788940368.6075978,1335191789.0,-7.70703125,-0.3125,5.94140625,0.041015625,-0.09765625,0.185546875,8.25,-7.25,-36.3125,8.25,-7.25,-36.3125,0.15026860187494565,-0.43867847617101197,0.060547437555264816,0.8839199905196846,-2.3366706103761894,52.533591181195554,159.5503407208199,0.52435302734375,0.34765625,0.26983642578125,-0.72894287109375,-2.69158025508783,52.16889737613417,-109.85877090685462,1.2667210024566085,,,,3,0,3,3
1788940368.6098113,1335195766.0,-7.62890625,-0.3515625,5.94140625,0.041015625,-0.09765625,0.185546875,8.25,-7.25,-36.3125,8.25,-7.25,-36.3125,0.1500546647837626,-0.4384029709334601,0.060599147125324375,0.8840894615484519,-2.298908639990714,52.50074562830601,159.60038314534165,0.52435302734375,0.34765625,0.26983642578125,-0.72894287109375,-2.69158025508783,52.16889737613417,-109.85877090685462,1.251627441770752,,,,3,0,3,3
1788940368.616452,1335199472.0,-7.62890625,-0.3515625,5.94140625,0.033203125,-0.08203125,0.1640625,8.25,-7.25,-36.3125,8.25,-7.25,-36.3125,0.14988485093747256,-0.4381820337942345,0.060617342453585035,0.884226540267405,-2.27265919063831,52.47386819267544,159.63831716135874,0.5250244140625,0.34771728515625,0.26904296875,-0.72869873046875,-2.5186488638428974,52.11739472895517,-109.68188253927954,1.422736400818472,,,,3,0,3,3
1788940368.6280842,1335203832.0,-7.5859375,-0.3515625,5.90234375,0.029296875,-0.068359375,0.15234375,8.4375,-7.8125,-37.0625,8.4375,-7.8125,-37.0625,0.1497965053249232,-0.4379500296369609,0.06072973377112188,0.884348730970715,-2.2373799406750536,52.447510258603316,159.67008668876312,0.5250244140625,0.34771728515625,0.26904296875,-0.72869873046875,-2.5186488638428974,52.11739472895517,-109.68188253927954,1.4187237193975255,,,,3,0,3,3
1788940368.6343036,1335207238.0,-7.62890625,-0.3515625,5.94140625,0.021484375,-0.060546875,0.14453125,8.4375,-7.8125,-37.0625,8.4375,-7.8125,-37.0625,0.14973207114806145,-0.43778408793113044,0.06079880819424923,0.8844370549373082,-2.2139306103353333,52.4284021610546,159.69209929764781,0.525634765625,0.3477783203125,0.26849365234375,-0.728515625,-2.3873204173874574,52.09057974632623,-109.55033939413208,0.663295341091727,,,,3,0,3,3
1788940368.6371756,1335211568.0,-7.5859375,-0.3515625,5.8671875,0.021484375,-0.060546875,0.14453125,8.4375,-7.8125,-37.0625,8.4375,-7.8125,-37.0625,0.14967693725386272,-0.4376398083691008,0.06087410726308651,0.8845126090960389,-2.191130420374181,52.4121261373227,159.71227001782052,0.525634765625,0.3477783203125,0.26849365234375,-0.728515625,-2.3873204173874574,52.09057974632623,-109.55033939413208,0.6575842713837796,,,,3,0,3,3
1788940368.6424763,1335215274.0,-7.625,-0.3515625,5.90234375,0.03125,-0.05859375,0.12890625,11.625,-8.8125,-41.875,11.625,-8.8125,-41.875,0.14965363793547973,-0.43753240124002335,0.06110244412411366,0.8845539428660499,-2.1473436488017685,52.40382999820533,159.737835763658,0.525634765625,0.3477783203125,0.26849365234375,-0.728515625,-2.3873204173874574,52.09057974632623,-109.55033939413208,0.6769681096294272,,,,3,0,3,3
1788940368.6440222,1335219380.0,-7.6640625,-0.3125,5.90234375,0.029296875,-0.056640625,0.12109375,11.625,-8.8125,-41.875,11.625,-8.8125,-41.875,0.14959687646560335,-0.4374463544650148,0.061391241115744066,0.8845861049277635,-2.091672124576822,52.39963997785885,159.77316774416252,0.526123046875,0.3477783203125,0.26800537109375,-0.72833251953125,-2.278302874732356,52.05525552707941,-109.43074255974349,0.8532085487908814,,,,3,0,3,3
1788940368.6514955,1335222963.0,-7.6640625,-0.2734375,5.94140625,0.0390625,-0.0546875,0.103515625,11.25,-7.875,-42.1875,11.25,-7.875,-42.1875,0.14949165677139428,-0.43729848497960394,0.06135408859380129,0.8846795778151041,-2.083062254322969,52.380498657290026,159.79307853695414,0.526123046875,0.3477783203125,0.26800537109375,-0.72833251953125,-2.278302874732356,52.05525552707941,-109.43074255974349,0.8330420184585174,,,,3,0,3,3
1788940368.6518338,1335227346.0,-7.66796875,-0.234375,5.90234375,0.02734375,-0.05859375,0.09765625,11.25,-7.875,-42.1875,11.25,-7.875,-42.1875,0.14932428853878502,-0.43716480648561895,0.06126330425611147,0.884780196644568,-2.0786259325652297,52.362086318828034,159.8188923594275,0.5264892578125,0.34783935546875,0.267578125,-0.7281494140625,-2.180212801152202,52.02804974281225,-109.3249592253102,1.2459855158180149,,,,3,0,3,3
1788940368.6518338,1335230922.0,-7.70703125,-0.234375,6.01953125,0.02734375,-0.05859375,0.09765625,11.25,-7.875,-42.1875,11.25,-7.875,-42.1875,0.14919917127576107,-0.43696418308983576,0.06124758015929286,0.8849014882527261,-2.062773855558295,52.33685121986863,159.84558342788878,0.5264892578125,0.34783935546875,0.267578125,-0.7281494140625,-2.180212801152202,52.02804974281225,-109.3249592253102,1.2308628875087633,,,,3,0,3,3
1788940368.6518338,1335234805.0,-7.703125,-0.2734375,5.98046875,0.033203125,-0.05859375,0.091796875,10.125,-9.4375,-43.25,10.125,-9.4375,-43.25,0.1491865678500175,-0.4368335810173695,0.06152077573954353,0.8849491423924192,-2.0116992796843784,52.326581137055875,159.87350868970367,0.5264892578125,0.34783935546875,0.267578125,-0.7281494140625,-2.180212801152202,52.02804974281225,-109.3249592253102,1.2433839907035826,,,,3,0,2,3
1788940368.6660259,1335238611.0,-7.70703125,-0.2734375,6.01953125,0.033203125,-0.060546875,0.078125,10.125,-9.4375,-43.25,10.125,-9.4375,-43.25,0.14920209949004665,-0.43666731530337516,0.06175773103601843,0.8850120744435004,-1.9675528928734833,52.31095653712243,159.8949145108004,0.52685546875,0.34783935546875,0.26715087890625,-0.72808837890625,-2.0940115884599653,52.00043129176311,-109.24563552743113,0.8353911239849792,,,,3,0,2,3
1788940368.6660259,1335242194.0,-7.70703125,-0.234375,6.01953125,0.03125,-0.052734375,0.072265625,10.625,-7.9375,-39.875,10.625,-7.9375,-39.875,0.14919187686897478,-0.43645757986031375,0.06188174694814196,0.8851085889615108,-1.938112742113698,52.28741697508358,159.91320502366523,0.52685546875,0.34783935546875,0.26715087890625,-0.72808837890625,-2.0940115884599653,52.00043129176311,-109.24563552743113,0.8366997191423539,,,,3,0,2,3
1788940368.6660259,1335246347.0,-7.6640625,-0.2734375,5.98046875,0.03125,-0.052734375,0.072265625,10.625,-7.9375,-39.875,10.625,-7.9375,-39.875,0.14923126285082697,-0.436259806788588,0.061905227901634205,0.885197804971961,-1.9298097282256232,52.26303522934889,159.91472603609793,0.52685546875,0.34783935546875,0.26715087890625,-0.72808837890625,-2.0940115884599653,52.00043129176311,-109.24563552743113,0.8342810932021867,,,,3,0,2,3
1788940368.6660259,1335250254.0,-7.62890625,-0.3125,5.98046875,0.0234375,-0.056640625,0.068359375,10.625,-7.9375,-39.875,10.625,-7.9375,-39.875,0.14925349217332992,-0.4360815965316839,0.06187042744843739,0.8852842969621629,-1.9304025979527433,52.23985256759499,159.91395700439227,0.527099609375,0.34783935546875,0.26678466796875,-0.72802734375,-2.0243067328207767,51.97269959431107,-109.17895677989453,1.023463150389654,,,,3,0,2,3
1788940368.6816354,1335254236.0,-7.58984375,-0.3515625,5.98046875,0.033203125,-0.05078125,0.0703125,7.4375,-8.8125,-37.6875,7.4375,-8.8125,-37.6875,0.14933000793257917,-0.4359299367477003,0.06204528892840381,0.8853338472575148,-1.902193180892244,52.22454493246671,159.91952847957174,0.527099609375,0.34783935546875,0.26678466796875,-0.72802734375,-2.0243067328207767,51.97269959431107,-109.17895677989453,1.0378354368668914,,,,3,0,3,3
1788940368.6816354,1335258719.0,-7.546875,-0.3515625,5.98046875,0.052734375,-0.046875,0.078125,7.4375,-8.8125,-37.6875,7.4375,-8.8125,-37.6875,0.1494095000066576,-0.43573578929178197,0.06227128827687519,0.885400141119464,-1.8642084518218265,52.20503806591904,159.92994820859062,0.52740478515625,0.34783935546875,0.266357421875,-0.72796630859375,-1.942289994692323,51.94199065665625,-109.10269239506304,1.030282204107933,,,,3,0,3,3
1788940368.6816354,1335262502.0,-7.5859375,-0.3125,6.01953125,0.068359375,-0.048828125,0.087890625,7.625,-7.625,-36.125,7.625,-7.625,-36.125,0.14940548775348028,-0.435533939660357,0.06234430352866501,0.8854949889471982,-1.8440551813976522,52.181344154787105,159.94281580249066,0.52740478515625,0.34783935546875,0.266357421875,-0.72796630859375,-1.942289994692323,51.94199065665625,-109.10269239506304,1.0290800291981061,,,,3,0,3,3
1788940368.6816354,1335266379.0,-7.55078125,-0.16015625,6.09375,0.068359375,-0.048828125,0.087890625,7.625,-7.625,-36.125,7.625,-7.625,-36.125,0.14932711162926293,-0.4352839229004686,0.06255048264830225,0.8856165972458426,-1.794057922768134,52.154711100469676,159.98026289008195,0.52740478515625,0.34783935546875,0.266357421875,-0.72796630859375,-1.942289994692323,51.94199065665625,-109.10269239506304,1.0316719496841,,,,3,0,3,3
1788940368.6816354,1335270085.0,-7.5859375,-0.04296875,6.1328125,0.080078125,-0.0390625,0.09765625,7.625,-7.625,-36.125,7.625,-7.625,-36.125,0.1492116475281802,-0.4350674394199254,0.06283397933441492,0.8857223596813609,-1.729670361678277,52.13405332019979,160.02893578574205,0.52764892578125,0.34796142578125,0.26580810546875,-0.7279052734375,-1.8360041930647326,51.912780190549796,-109.01728732689999,1.2498127226852322,,,,3,0,3,3
1788940368.6983511,1335274544.0,-7.55078125,-0.0078125,6.09375,0.068359375,-0.02734375,0.109375,7.8125,-7.8125,-37.125,7.8125,-7.8125,-37.125,0.14902442382921335,-0.4348376877369953,0.0631790382709709,0.8858421504698619,-1.648795575652523,52.11319620551979,160.0949668201046,0.52764892578125,0.34796142578125,0.26580810546875,-0.7279052734375,-1.8360041930647326,51.912780190549796,-109.01728732689999,1.2548736840029568,,,,3,0,3,3
1788940368.6983511,1335277850.0,-7.5078125,-0.0078125,6.1328125,0.056640625,-0.02734375,0.10546875,7.8125,-7.8125,-37.125,7.8125,-7.8125,-37.125,0.14889048442371403,-0.434662851494644,0.0633932672353097,0.8859351685354011,-1.5959293906179624,52.09621674689553,160.1399294784194,0.52789306640625,0.34820556640625,0.26531982421875,-0.727783203125,-1.7237897053610192,51.90207020299905,-108.92732795149834,1.2917313489217432,,,,3,0,3,3
1788940368.696398,1335282080.0,-7.47265625,-0.04296875,6.171875,0.056640625,-0.02734375,0.10546875,7.8125,-7.8125,-37.125,7.8125,-7.8125,-37.125,0.14873354103339828,-0.43443210892783296,0.06363390340631118,0.886057448950946,-1.53475874270365,52.07282119131913,160.1925454475296,0.52789306640625,0.34820556640625,0.26531982421875,-0.727783203125,-1.7237897053610192,51.90207020299905,-108.92732795149834,1.2927236483624815,,,,3,0,3,3
1788940368.6983511,1335285986.0,-7.4296875,-0.04296875,6.171875,0.041015625,-0.01953125,0.111328125,7.4375,-7.3125,-37.1875,7.4375,-7.3125,-37.1875,0.1485496320321532,-0.43423776838473305,0.06376447865145564,0.8861741694462025,-1.4908009731427392,52.051606958963205,160.23995905152515,0.52789306640625,0.34820556640625,0.26531982421875,-0.727783203125,-1.7237897053610192,51.90207020299905,-108.92732795149834,1.286764583526529,,,,3,0,3,3
1788940368.7149785,1335290093.0,-7.43359375,-0.08203125,6.09375,0.02734375,-0.0234375,0.11328125,7.4375,-7.3125,-37.1875,7.4375,-7.3125,-37.1875,0.1483418329379859,-0.43403496904334815,0.06385176004869252,0.8863020359825553,-1.4516799496485726,52.028409672882574,160.28825691327765,0.5281982421875,0.348388671875,0.264892578125,-0.72760009765625,-1.6188554684165573,51.88810012967399,-108.8271321496098,1.478498553626256,,,,3,0,3,3
1788940368.7149785,1335293475.0,-7.39453125,-0.08203125,6.05859375,0.02734375,-0.02734375,0.119140625,7.1875,-7.75,-36.875,7.1875,-7.75,-36.875,0.1481766346450516,-0.4338543553289565,0.0639773496286148,0.8864090376580444,-1.4107023856834235,52.00874757419455,160.33158479193872,0.5281982421875,0.348388671875,0.264892578125,-0.72760009765625,-1.6188554684165573,51.88810012967399,-108.8271321496098,1.474527906499409,,,,3,0,3,3
1788940368.7149785,1335298058.0,-7.39453125,-0.08203125,6.05859375,0.021484375,-0.037109375,0.123046875,7.1875,-7.75,-36.875,7.1875,-7.75,-36.875,0.1479411428032708,-0.4335911551208219,0.06413315654778425,0.8865658840144205,-1.355947035515278,51.97947137807006,160.39163674105671,0.52862548828125,0.34857177734375,0.2645263671875,-0.7274169921875,-1.5144893853298798,51.88605565433876,-108.72869698925888,0.7790884486577571,,,,3,0,3,3
1788940368.7130253,1335301211.0,-7.39453125,-0.12109375,6.05859375,0.021484375,-0.037109375,0.123046875,7.1875,-7.75,-36.875,7.1875,-7.75,-36.875,0.1477890627130069,-0.4334119098431608,0.06421849157846612,0.8866727100164419,-1.3227878916447824,51.95905698571616,160.42945957565013,0.52862548828125,0.34857177734375,0.2645263671875,-0.7274169921875,-1.5144893853298798,51.88605565433876,-108.72869698925888,0.7695286603207835,,,,3,0,3,3
1788940368.7313395,1335305318.0,-7.43359375,-0.08203125,6.05859375,0.02734375,-0.04296875,0.12109375,7.6875,-8.875,-37.9375,7.6875,-8.875,-37.9375,0.14762935414780587,-0.43320167828928513,0.06450049070077592,0.8867815776281145,-1.255763150022272,51.939002263402855,160.4847573460473,0.52862548828125,0.34857177734375,0.2645263671875,-0.7274169921875,-1.5144893853298798,51.88605565433876,-108.72869698925888,0.7810986892166174,,,,3,0,3,3
1788940368.7323508,1335309224.0,-7.43359375,-0.12109375,6.09375,0.033203125,-0.046875,0.119140625,7.6875,-8.875,-37.9375,7.6875,-8.875,-37.9375,0.14749982744991116,-0.43298199862349884,0.06474818621049924,0.8868923622135312,-1.196548203516584,51.916951895923326,160.5324902387143,0.529052734375,0.3486328125,0.26409912109375,-0.72723388671875,-1.4133653903426777,51.86147113473009,-108.6215645308367,0.7829566347565905,,,,3,0,3,3
1788940368.739296,1335312807.0,-7.46875,-0.12109375,6.09375,0.041015625,-0.048828125,0.111328125,10.25,-7.875,-42.375,10.25,-7.875,-42.375,0.1473475906300464,-0.43277827788637113,0.06478882931109113,0.8870141246461216,-1.1699193726978112,51.89246295975978,160.5674486152832,0.529052734375,0.3486328125,0.26409912109375,-0.72723388671875,-1.4133653903426777,51.86147113473009,-108.6215645308367,0.7702826626198912,,,,3,0,3,3
1788940368.739296,1335317189.0,-7.46875,-0.16015625,6.2109375,0.04296875,-0.046875,0.1015625,10.25,-7.875,-42.375,10.25,-7.875,-42.375,0.14719843015946826,-0.4325303593678553,0.06484069714456574,0.8871560146769614,-1.1401437547961701,51.86265892543474,160.6040171183287,0.5294189453125,0.3487548828125,0.26361083984375,-0.72705078125,-1.3021453847516258,51.83608068433516,-108.51128116769465,1.1146917612396465,,,,3,0,3,3
1788940368.739296,1335321543.0,-7.51171875,-0.04296875,6.171875,0.04296875,-0.046875,0.1015625,10.25,-7.875,-42.375,10.25,-7.875,-42.375,0.14701467735913865,-0.43227045225299576,0.0649308925965053,0.8873065535296131,-1.1008913611800988,51.83220803879566,160.64970199418724,0.5294189453125,0.3487548828125,0.26361083984375,-0.72705078125,-1.3021453847516258,51.83608068433516,-108.51128116769465,1.1074481414976256,,,,3,0,3,3
1788940368.7520816,1335324349.0,-7.546875,-0.0078125,6.171875,0.046875,-0.041015625,0.0859375,10.5625,-9.3125,-42.4375,10.5625,-9.3125,-42.4375,0.14694167780228629,-0.4321264502641084,0.06512863205899885,0.887374292839788,-1.0574321672772802,51.81845363827861,160.68156381204233,0.5294189453125,0.3487548828125,0.26361083984375,-0.72705078125,-1.3021453847516258,51.83608068433516,-108.51128116769465,1.1168070892946806,,,,3,0,2,3
1788940368.7590823,1335329232.0,-7.58984375,0.03125,6.171875,0.048828125,-0.03125,0.0703125,10.5625,-9.3125,-42.4375,10.5625,-9.3125,-42.4375,0.14683539055361156,-0.43191544803324594,0.06548746291622431,0.8874682000116989,-0.9825876514334653,51.79975092480279,160.73343401210184,0.52972412109375,0.34881591796875,0.26318359375,-0.72698974609375,-1.215129225689718,51.81331525954337,-108.43715861114852,0.7692512971678964,,,,3,0,2,3
1788940368.7610784,1335333214.0,-7.58984375,0.0703125,6.2109375,0.044921875,-0.015625,0.05078125,10.375,-9.625,-41.8125,10.375,-9.625,-41.8125,0.14678448887947193,-0.4317875193210078,0.06577381989181964,0.88751769368269,-0.9271289281820358,51.789845410866846,160.767889889521,0.52972412109375,0.34881591796875,0.26318359375,-0.72698974609375,-1.215129225689718,51.81331525954337,-108.43715861114852,0.7951359899407928,,,,3,0,2,3
1788940368.7620785,1335336968.0,-7.62890625,0.0703125,6.2109375,0.044921875,-0.015625,0.05078125,10.375,-9.625,-41.8125,10.375,-9.625,-41.8125,0.14673611382554044,-0.4316737589912654,0.06604972122016088,0.8875605404841227,-0.8741099469317404,51.7814788522338,160.80067874795014,0.52972412109375,0.34881591796875,0.26318359375,-0.72698974609375,-1.215129225689718,51.81331525954337,-108.43715861114852,0.8208632392879699,,,,3,0,2,3
1788940368.7669957,1335341274.0,-7.625,0.109375,6.2109375,0.04296875,-0.013671875,0.037109375,10.375,-9.625,-41.8125,10.375,-9.625,-41.8125,0.1466969899976076,-0.43155116020808476,0.06635177279701929,0.8876040961461312,-0.8172902862334739,51.77253497720913,160.83415905496793,0.52984619140625,0.34893798828125,0.26287841796875,-0.7269287109375,-1.150887499329237,51.80180189976101,-108.38567614958228,1.069654510824238,,,,3,0,2,3
1788940368.758931,1335344857.0,-7.6640625,0.1484375,6.2109375,0.044921875,0.0,0.017578125,11.8125,-8.625,-40.8125,11.8125,-8.625,-40.8125,0.14667323905069204,-0.43146884655421885,0.06658991826402103,0.8876302035110915,-0.7735950731823623,51.76726783941578,160.85893500783985,0.52984619140625,0.34893798828125,0.26287841796875,-0.7269287109375,-1.150887499329237,51.80180189976101,-108.38567614958228,1.0883634831815814,,,,3,0,2,3
1788940368.767785,1335348363.0,-7.70703125,0.1875,6.1328125,0.01953125,0.0078125,0.0078125,11.8125,-8.625,-40.8125,11.8125,-8.625,-40.8125,0.14663502006372026,-0.43144260985974175,0.06679487408289568,0.8876338716411046,-0.7361117577819034,51.768342336917556,160.88199382452768,0.52984619140625,0.34906005859375,0.2626953125,-0.7269287109375,-1.1142047690669292,51.800267329416364,-108.3668945723684,1.1493339683007018,,,,3,0,2,3
1788940368.7795568,1335352146.0,-7.74609375,0.1484375,6.171875,0.017578125,0.00390625,0.005859375,7.4375,-9.3125,-37.75,7.4375,-9.3125,-37.75,0.14663216876441346,-0.43141832694083576,0.06701697558095694,0.887629404226221,-0.6987971867176591,51.76998948084568,160.90035377748237,0.52984619140625,0.34906005859375,0.2626953125,-0.7269287109375,-1.1142047690669292,51.800267329416364,-108.3668945723684,1.1671845645924495,,,,3,0,3,3
1788940368.7815244,1335356022.0,-7.7734375,0.1484375,6.171875,0.017578125,0.00390625,0.005859375,7.4375,-9.3125,-37.75,7.4375,-9.3125,-37.75,0.14662886296184194,-0.4313995141353103,0.06724557442941848,0.887621804863982,-0.6605757449492276,51.77245620282165,160.91914135178172,0.52984619140625,0.34906005859375,0.2626953125,-0.7269287109375,-1.1142047690669292,51.800267329416364,-108.3668945723684,1.1857907506464078,,,,3,0,3,3
1788940368.7834067,1335359829.0,-7.81640625,0.1875,6.09375,0.0234375,0.0,0.005859375,7.4375,-9.3125,-37.75,7.4375,-9.3125,-37.75,0.14662270424525806,-0.43140250533072494,0.06747786711238203,0.8876037395392976,-0.6222775985611633,51.77773563044831,160.93809052362755,0.52978515625,0.34912109375,0.26263427734375,-0.7269287109375,-1.1039789835654878,51.799525949770725,-108.36353803781938,1.4618767092982403,,,,3,0,3,3
1788940368.7908504,1335364388.0,-7.85546875,0.22265625,6.1328125,0.013671875,-0.0078125,0.0078125,7.1875,-8.25,-36.9375,7.1875,-8.25,-36.9375,0.14654172526565523,-0.431379928643311,0.06772293107934686,0.8876094211565576,-0.5748644572096454,51.780117409678816,160.97138233806484,0.52978515625,0.34912109375,0.26263427734375,-0.7269287109375,-1.1039789835654878,51.799525949770725,-108.36353803781938,1.4746078221572765,,,,3,0,3,3
1788940368.794868,1335367494.0,-7.89453125,0.109375,6.1328125,0.01171875,-0.015625,0.009765625,7.1875,-8.25,-36.9375,7.1875,-8.25,-36.9375,0.1464908747764606,-0.4313801411754944,0.06788243804314079,0.8876055272540596,-0.544672709233189,51.78353139826144,160.99232637372458,0.52978515625,0.34918212890625,0.26251220703125,-0.7269287109375,-1.081472455334563,51.795764015599175,-108.35071045312016,1.5665291079172659,,,,3,0,3,3
1788940368.796995,1335371724.0,-7.93359375,0.109375,6.1328125,0.01171875,-0.015625,0.009765625,7.1875,-8.25,-36.9375,7.1875,-8.25,-36.9375,0.1464231601907478,-0.4313984064591865,0.06809030519456587,0.8875919013841553,-0.505826415029099,51.79023254188843,161.0193738452654,0.52978515625,0.34918212890625,0.26251220703125,-0.7269287109375,-1.081472455334563,51.795764015599175,-108.35071045312016,1.5770032186539924,,,,3,0,3,3
1788940368.798948,1335375330.0,-7.97265625,0.0703125,6.1328125,0.0078125,-0.033203125,0.021484375,7.4375,-8.8125,-37.625,7.4375,-8.8125,-37.625,0.14638508681026138,-0.4313958902139784,0.06826800137739719,0.8875857548732838,-0.47360830225452244,51.79366641663877,161.03965522863453,0.52978515625,0.34918212890625,0.26251220703125,-0.7269287109375,-1.081472455334563,51.795764015599175,-108.35071045312016,1.5872381543121106,,,,3,0,3,3
1788940368.798948,1335379236.0,-7.97265625,0.0703125,6.1328125,0.0078125,-0.04296875,0.037109375,7.4375,-8.8125,-37.625,7.4375,-8.8125,-37.625,0.14631821893382171,-0.4313751361609873,0.06847007589181389,0.8875913020177097,-0.43441496627105863,51.79532912984858,161.06719565042084,0.52984619140625,0.34918212890625,0.2623291015625,-0.72698974609375,-1.0555029312546411,51.78470712642998,-108.34121385426378,1.331217513791325,,,,3,0,3,3
1788940368.798948,1335384096.0,-7.96875,0.03125,6.1328125,0.0078125,-0.048828125,0.048828125,7.8125,-5.875,-36.625,7.8125,-5.875,-36.625,0.14613754235301854,-0.43129404199032545,0.06830038874992868,0.8876735463870012,-0.44450925069277697,51.78168046766293,161.0867716119874,0.52984619140625,0.34918212890625,0.2623291015625,-0.72698974609375,-1.0555029312546411,51.78470712642998,-108.34121385426378,1.3076049670739585,,,,3,0,3,3
1788940368.8151433,1335387902.0,-8.01171875,-0.0078125,6.09375,0.015625,-0.0625,0.064453125,7.8125,-5.875,-36.625,7.8125,-5.875,-36.625,0.14598781986542747,-0.4312244761404542,0.06819301465051936,0.8877402324898901,-0.44737135927318866,51.77077265070696,161.10563187473042,0.53009033203125,0.34906005859375,0.2620849609375,-0.72698974609375,-1.0181241296655303,51.756168156374564,-108.30155292132945,1.0360631235052196,,,,3,0,3,3
1788940368.8131902,1335391932.0,-8.01171875,-0.0078125,6.1328125,0.015625,-0.0625,0.064453125,7.8125,-5.875,-36.625,7.8125,-5.875,-36.625,0.1458290916311923,-0.431140883748469,0.06807522374293691,0.8878159597050278,-0.45071960539148065,51.75789317926899,161.12558317389195,0.53009033203125,0.34906005859375,0.2620849609375,-0.72698974609375,-1.0181241296655303,51.756168156374564,-108.30155292132945,1.0133977845336166,,,,3,0,3,3
1788940368.8151433,1335394961.0,-8.01171875,-0.04296875,6.09375,0.017578125,-0.068359375,0.080078125,7.5625,-8.6875,-36.9375,7.5625,-8.6875,-36.9375,0.14575511746743514,-0.4311182579474169,0.0682292590128219,0.8878272701438046,-0.418747580492867,51.75830124206451,161.15062237214187,0.53009033203125,0.34906005859375,0.2620849609375,-0.72698974609375,-1.0181241296655303,51.756168156374564,-108.30155292132945,1.024176083896872,,,,3,0,3,3
1788940368.8305101,1335402650.0,-7.96875,-0.12109375,6.1328125,0.02734375,-0.095703125,0.115234375,7.0625,-8.875,-38.0625,7.0625,-8.875,-38.0625,0.1455477627851599,-0.4309952192767136,0.06856882761837674,0.8878948617870777,-0.3421475878393911,51.750002714773466,161.21526824916316,0.5303955078125,0.3489990234375,0.26165771484375,-0.7269287109375,-0.9431428654629327,51.71688397440443,-108.22608266896006,1.2184423591869957,,,,3,0,3,3
1788940368.8321788,1335407033.0,-7.96875,-0.12109375,6.09375,0.03515625,-0.103515625,0.126953125,7.0625,-8.875,-38.0625,7.0625,-8.875,-38.0625,0.14540452408064852,-0.43091152447171105,0.06876860761471429,0.8879435010523359,-0.29497411084544056,51.74368662795209,161.25717342138012,0.5308837890625,0.348876953125,0.2611083984375,-0.72686767578125,-0.845800250276248,51.66625346608594,-108.12858109924632,0.8664821990494314,,,,3,0,3,3
1788940368.8321788,1335410610.0,-7.93359375,-0.12109375,6.09375,0.03515625,-0.103515625,0.126953125,7.0625,-8.875,-38.0625,7.0625,-8.875,-38.0625,0.14529601996037717,-0.43084253950189544,0.06892690098863137,0.8879824632611474,-0.2579254629010895,51.738332793226846,161.28959436781787,0.5308837890625,0.348876953125,0.2611083984375,-0.72686767578125,-0.845800250276248,51.66625346608594,-108.12858109924632,0.8763081369058597,,,,3,0,3,3
1788940368.8321788,1335415469.0,-7.93359375,-0.12109375,6.1328125,0.0546875,-0.109375,0.1484375,10.875,-9.0,-40.6875,10.875,-9.0,-40.6875,0.14513646163496596,-0.43070970965019356,0.069254481432103,0.8880475045394242,-0.18693431859493606,51.7284540485668,161.34542890348328,0.5308837890625,0.348876953125,0.2611083984375,-0.72686767578125,-0.845800250276248,51.66625346608594,-108.12858109924632,0.9033632541334702,,,,3,0,3,3
1788940368.8321788,1335419075.0,-7.89453125,-0.04296875,6.09375,0.068359375,-0.119140625,0.1484375,10.875,-9.0,-40.6875,10.875,-9.0,-40.6875,0.14499501282274668,-0.43057735711410833,0.0695605171835408,0.8881108715956132,-0.12098914103291933,51.7181552656209,161.39649089157314,0.53143310546875,0.34881591796875,0.2603759765625,-0.72674560546875,-0.7112016108335888,51.60481908688425,-107.99573561322296,1.0361292153688202,,,,3,0,3,3
1788940368.8490164,1335422858.0,-7.8515625,-0.0078125,6.09375,0.07421875,-0.119140625,0.15234375,10.1875,-7.4375,-42.625,10.1875,-7.4375,-42.625,0.14476614521895206,-0.43036787503255813,0.06959793755673369,0.8882468026546758,-0.0892051680806821,51.692628780574715,161.443470305833,0.53143310546875,0.34881591796875,0.2603759765625,-0.72674560546875,-0.7112016108335888,51.60481908688425,-107.99573561322296,1.0223608387147258,,,,3,0,2,3
1788940368.8490164,1335427011.0,-7.8515625,0.03125,6.1328125,0.07421875,-0.119140625,0.15234375,10.1875,-7.4375,-42.625,10.1875,-7.4375,-42.625,0.14450087281202353,-0.43012145789916356,0.0696407990563123,0.8884059816987163,-0.05239612516542257,51.6625652638412,161.49791073884825,0.53143310546875,0.34881591796875,0.2603759765625,-0.72674560546875,-0.7112016108335888,51.60481908688425,-107.99573561322296,1.0080050798953855,,,,3,0,2,3
1788940368.8563228,1335430718.0,-7.8125,0.0703125,6.171875,0.078125,-0.126953125,0.1484375,10.1875,-7.4375,-42.625,10.1875,-7.4375,-42.625,0.14426396348024825,-0.4298572663013718,0.06968695965650257,0.888568718278285,-0.016847322767297043,51.63032234317224,161.54821746714003,0.531982421875,0.3487548828125,0.259521484375,-0.72662353515625,-0.560553878416046,51.53135847668811,-107.84992271108887,1.4115663017209077,,,,3,0,2,3
1788940368.8614078,1335434500.0,-7.7734375,0.03125,6.171875,0.072265625,-0.123046875,0.140625,9.8125,-7.0,-43.0625,9.8125,-7.0,-43.0625,0.14405098594939417,-0.4295970041715752,0.06971147991238703,0.8887272005639525,0.01302702285851397,51.59812229837193,161.59265409054814,0.531982421875,0.3487548828125,0.259521484375,-0.72662353515625,-0.560553878416046,51.53135847668811,-107.84992271108887,1.4019520261246652,,,,3,0,2,3
1788940368.8631876,1335438207.0,-7.77734375,0.0703125,6.171875,0.064453125,-0.1171875,0.134765625,9.8125,-7.0,-43.0625,9.8125,-7.0,-43.0625,0.1438346302852879,-0.42935428085218835,0.06972294062356096,0.8888786262451124,0.04041341587282851,51.56785368755114,161.6361418157732,0.53253173828125,0.34869384765625,0.2586669921875,-0.7265625,-0.4133256728646002,51.46176052340877,-107.71850572068719,1.322816896752999,,,,3,0,2,3
1788940368.8676147,1335442466.0,-7.74609375,0.03125,6.171875,0.05859375,-0.103515625,0.11328125,11.5625,-7.0,-39.625,11.5625,-7.0,-39.625,0.14363776670923828,-0.42908708787742295,0.06970987284882872,0.8890404921144228,0.06296294754851373,51.53400974323966,161.67502993369973,0.53253173828125,0.34869384765625,0.2586669921875,-0.7265625,-0.4133256728646002,51.46176052340877,-107.71850572068719,1.3100347997105113,,,,3,0,2,3
1788940368.8676147,1335446719.0,-7.7421875,0.03125,6.2109375,0.05859375,-0.103515625,0.11328125,11.5625,-7.0,-39.625,11.5625,-7.0,-39.625,0.14344797446842428,-0.4287997208999349,0.06970631716367694,0.8892100467968865,0.08708453904115161,51.497822673334504,161.71391734991332,0.53253173828125,0.34869384765625,0.2586669921875,-0.7265625,-0.4133256728646002,51.46176052340877,-107.71850572068719,1.2995786441680177,,,,3,0,2,3
1788940368.8676147,1335449649.0,-7.7421875,0.03125,6.2109375,0.0546875,-0.095703125,0.103515625,11.5625,-7.0,-39.625,11.5625,-7.0,-39.625,0.14332680660574143,-0.4286171707775411,0.06969208059660462,0.889318706271814,0.10047678847363997,51.47459186664617,161.7377702537897,0.532958984375,0.3486328125,0.25799560546875,-0.72650146484375,-0.2989181147313899,51.404241017967685,-107.61277239957106,1.3920851372790912,,,,3,0,2,3
1788940368.8814566,1335454408.0,-7.7421875,0.0703125,6.171875,0.044921875,-0.091796875,0.083984375,6.875,-8.0625,-39.0625,6.875,-8.0625,-39.0625,0.14307728849935508,-0.4283523583168507,0.06965836175709002,0.8894891001453492,0.12369797157318332,51.440619025720174,161.7837005004327,0.532958984375,0.3486328125,0.25799560546875,-0.72650146484375,-0.2989181147313899,51.404241017967685,-107.61277239957106,1.3772831399859484,,,,3,0,2,3
1788940368.8822625,1335458314.0,-7.7421875,0.03125,6.2109375,0.041015625,-0.08203125,0.068359375,6.875,-8.0625,-39.0625,6.875,-8.0625,-39.0625,0.14294149332845396,-0.42814218620469174,0.06959565626959034,0.8896170201301814,0.13121790131232555,51.41294118394792,161.8069185862328,0.5333251953125,0.3485107421875,0.25738525390625,-0.72650146484375,-0.20570420004684492,51.345548537094906,-107.52943006425652,1.4015227461478044,,,,3,0,2,3
1788940368.8803093,1335461568.0,-7.74609375,0.03125,6.171875,0.041015625,-0.08203125,0.068359375,6.875,-8.0625,-39.0625,6.875,-8.0625,-39.0625,0.14282015808883827,-0.42800151797901437,0.06953439138330168,0.8897089813338361,0.13555865387413718,51.39402562544402,161.82607058881558,0.5333251953125,0.3485107421875,0.25738525390625,-0.72650146484375,-0.20570420004684492,51.345548537094906,-107.52943006425652,1.391659511683514,,,,3,0,2,3
1788940368.8822625,1335465950.0,-7.7421875,-0.0078125,6.25,0.03125,-0.07421875,0.05078125,7.8125,-8.3125,-37.25,7.8125,-8.3125,-37.25,0.14285307119424231,-0.4277177814946842,0.06972054296573783,0.8898255701721551,0.17220497302050783,51.36213736832168,161.8418634872735,0.5333251953125,0.3485107421875,0.25738525390625,-0.72650146484375,-0.20570420004684492,51.345548537094906,-107.52943006425652,1.4044371928973465,,,,3,0,3,3
1788940368.8822625,1335469380.0,-7.77734375,0.03125,6.2109375,0.02734375,-0.060546875,0.033203125,7.8125,-8.3125,-37.25,7.8125,-8.3125,-37.25,0.1428541985753158,-0.4276298280381631,0.0699382528250098,0.8898505767336673,0.21026583407223684,51.355459363617875,161.86051286849633,0.53350830078125,0.34844970703125,0.2569580078125,-0.7265625,-0.1457785804945714,51.30815954138333,-107.48828756794197,1.3008399590708333,,,,3,0,3,3
1788940368.8984156,1335473939.0,-7.7734375,0.0703125,6.2109375,0.021484375,-0.05859375,0.02734375,7.25,-8.625,-36.625,7.25,-8.625,-36.625,0.14285352873089946,-0.42750709000174486,0.07021416986402176,0.8898879298415482,0.25901465516634437,51.34557343651646,161.8847601971819,0.53350830078125,0.34844970703125,0.2569580078125,-0.7265625,-0.1457785804945714,51.30815954138333,-107.48828756794197,1.3191051681774704,,,,3,0,3,3
1788940368.8964624,1335477546.0,-7.7421875,-0.04296875,6.2109375,0.005859375,-0.06640625,0.01171875,7.25,-8.625,-36.625,7.25,-8.625,-36.625,0.14297362624878793,-0.42740979606474244,0.07033860316741049,0.8899055507915572,0.2726319090335521,51.33588311375141,161.87655658687513,0.53363037109375,0.34832763671875,0.2567138671875,-0.7266845703125,-0.12306733196444437,51.28157198391195,-107.48249534395333,0.6995348957987448,,,,3,0,3,3
1788940368.8984156,1335481899.0,-7.74609375,-0.04296875,6.171875,0.005859375,-0.06640625,0.01171875,7.25,-8.625,-36.625,7.25,-8.625,-36.625,0.14309820937820117,-0.4273508460242664,0.07047533482648038,0.8899030194668359,0.2866690799325436,51.331258869819074,161.86759891070682,0.53363037109375,0.34832763671875,0.2567138671875,-0.7266845703125,-0.12306733196444437,51.28157198391195,-107.48249534395333,0.7288562303035753,,,,3,0,3,3
1788940368.8984156,1335484805.0,-7.7421875,-0.08203125,6.2109375,-0.005859375,-0.060546875,0.013671875,6.6875,-7.9375,-38.0,6.6875,-7.9375,-38.0,0.14308738537278792,-0.4272713677852812,0.0703192628640547,0.8899552683637141,0.2647287388021881,51.31814795193873,161.85943175188504,0.53363037109375,0.34832763671875,0.2567138671875,-0.7266845703125,-0.12306733196444437,51.28157198391195,-107.48249534395333,0.7078100297485264,,,,3,0,3,3
1788940368.9149523,1335489588.0,-7.7421875,-0.16015625,6.2109375,-0.005859375,-0.068359375,0.015625,6.6875,-7.9375,-38.0,6.6875,-7.9375,-38.0,0.14309092799358702,-0.42713408695314037,0.07006296730409954,0.8900408073235664,0.22722040327181398,51.29577366871663,161.84263998051384,0.53369140625,0.34808349609375,0.25653076171875,-0.72674560546875,-0.12143208401937286,51.23795015203127,-107.4703937837611,1.381780869896164,,,,3,0,3,3
1788940368.9129775,1335493471.0,-7.74609375,-0.19921875,6.1328125,-0.0078125,-0.076171875,0.017578125,6.625,-8.5625,-36.375,6.625,-8.5625,-36.375,0.14319114691757925,-0.42709463424614535,0.06995762838470568,0.890051908078044,0.20334033535033777,51.28873059432772,161.81880500657158,0.53369140625,0.34808349609375,0.25653076171875,-0.72674560546875,-0.12143208401937286,51.23795015203127,-107.4703937837611,1.3802651168402453,,,,3,0,0,3
1788940368.9149523,1335497324.0,-7.70703125,-0.234375,6.1328125,-0.0078125,-0.076171875,0.017578125,6.625,-8.5625,-36.375,6.625,-8.5625,-36.375,0.14329688376071978,-0.427034310327103,0.06982943247933487,0.8900739021382079,0.1759852910830797,51.27860417028293,161.79282820784255,0.53369140625,0.34808349609375,0.25653076171875,-0.72674560546875,-0.12143208401937286,51.23795015203127,-107.4703937837611,1.3778281312488116,,,,3,0,0,3
1788940368.9149523,1335501430.0,-7.66796875,-0.234375,6.09375,-0.00390625,-0.083984375,0.021484375,6.625,-8.5625,-36.375,6.625,-8.5625,-36.375,0.1434050492375351,-0.4269604341946155,0.06970641262722378,0.8901015647240313,0.1497206329690221,51.26687547885685,161.7671889603129,0.53387451171875,0.34783935546875,0.25628662109375,-0.726806640625,-0.10391259551212904,51.19412373551148,-107.44683317735561,1.432684741358635,,,,3,0,0,3
1788940368.9322782,1335505213.0,-7.62890625,-0.234375,6.1328125,0.0,-0.09375,0.0390625,6.8125,-8.75,-37.4375,6.8125,-8.75,-37.4375,0.14348649879442957,-0.4268299545045472,0.06958702240499252,0.8901603568538476,0.12801492363962375,51.24810726712954,161.74771671930316,0.53387451171875,0.34783935546875,0.25628662109375,-0.726806640625,-0.10391259551212904,51.19412373551148,-107.44683317735561,1.4297131716107172,,,,3,0,0,3
1788940368.934878,1335508719.0,-7.5859375,-0.3125,6.09375,0.01171875,-0.103515625,0.052734375,6.8125,-8.75,-37.4375,6.8125,-8.75,-37.4375,0.14353812360981222,-0.4266923332052631,0.06949074575543561,0.8902255310362518,0.11269008553433478,51.22890324846996,161.7351842680307,0.53411865234375,0.34759521484375,0.2559814453125,-0.72686767578125,-0.0744486852990062,51.147216765798504,-107.4143086461658,1.321939197745958,,,,3,0,0,3
1788940368.9400544,1335512702.0,-7.5859375,-0.3125,6.1328125,0.0234375,-0.111328125,0.068359375,9.875,-6.875,-42.3125,9.875,-6.875,-42.3125,0.1434640697412402,-0.42647884867228614,0.0693609794298357,0.8903498789020954,0.10444892218357836,51.19949109103687,161.74300503092837,0.53411865234375,0.34759521484375,0.2559814453125,-0.72686767578125,-0.0744486852990062,51.147216765798504,-107.4143086461658,1.3086256781545313,,,,3,0,0,3
1788940368.9400544,1335517055.0,-7.5078125,-0.3125,6.1328125,0.0234375,-0.111328125,0.068359375,9.875,-6.875,-42.3125,9.875,-6.875,-42.3125,0.14338416197317397,-0.426233741147485,0.06922107533358905,0.8904910009272025,0.09604502783533103,51.16591226297099,161.75181895412865,0.53411865234375,0.34759521484375,0.2559814453125,-0.72686767578125,-0.0744486852990062,51.147216765798504,-107.4143086461658,1.2950478056572137,,,,3,0,0,3
1788940368.9400544,1335520761.0,-7.5078125,-0.3125,6.1328125,0.03515625,-0.126953125,0.087890625,9.875,-6.875,-42.3125,9.875,-6.875,-42.3125,0.14329522649317186,-0.4259948422319093,0.06913232127120153,0.890626518026348,0.0964307897360006,51.13414765214132,161.7658612467178,0.53448486328125,0.34735107421875,0.25543212890625,-0.7269287109375,-0.004935470574907424,51.08221164481484,-107.35071581029739,1.1262534482078845,,,,3,0,0,3
1788940368.948345,1335524544.0,-7.47265625,-0.2734375,6.1328125,0.044921875,-0.130859375,0.099609375,8.625,-8.3125,-42.625,8.625,-8.3125,-42.625,0.14321228565522012,-0.4257304552938231,0.06907107884875982,0.8907710181294574,0.10158388920438492,51.09974524254685,161.78160522696493,0.53448486328125,0.34735107421875,0.25543212890625,-0.7269287109375,-0.004935470574907424,51.08221164481484,-107.35071581029739,1.115567940093414,,,,3,0,2,3
1788940368.948345,1335528827.0,-7.46875,-0.234375,6.171875,0.0625,-0.140625,0.109375,8.625,-8.3125,-42.625,8.625,-8.3125,-42.625,0.14311216642847757,-0.4253901515633273,0.0690460270079965,0.8909516108787773,0.11634360137944212,51.05655207792381,161.80480035060208,0.534912109375,0.34716796875,0.2547607421875,-0.7269287109375,0.0931554814992701,51.01238166685648,-107.25909174212633,1.181718509120051,,,,3,0,2,3
1788940368.9631715,1335532310.0,-7.47265625,-0.16015625,6.171875,0.0625,-0.1328125,0.11328125,9.8125,-9.9375,-43.625,9.8125,-9.9375,-43.625,0.14313174401992912,-0.42508992689713726,0.0691587310819724,0.8910830083777446,0.1425138365642326,51.02117070717617,161.8174363797652,0.534912109375,0.34716796875,0.2547607421875,-0.7269287109375,0.0931554814992701,51.01238166685648,-107.25909174212633,1.1883768071876524,,,,3,0,2,3
1788940368.9651392,1335536586.0,-7.4296875,-0.08203125,6.171875,0.0625,-0.1328125,0.11328125,9.8125,-9.9375,-43.625,9.8125,-9.9375,-43.625,0.14310900697519216,-0.4246823795689163,0.06938346551227453,0.8912634982538914,0.19346762546870522,50.974573195754374,161.8481387398302,0.534912109375,0.34716796875,0.2547607421875,-0.7269287109375,0.0931554814992701,51.01238166685648,-107.25909174212633,1.2003230253267114,,,,3,0,2,3
1788940368.9651392,1335540293.0,-7.43359375,-0.08203125,6.2109375,0.0703125,-0.126953125,0.11328125,9.8125,-9.9375,-43.625,9.8125,-9.9375,-43.625,0.14308597764825187,-0.4243303499158432,0.06957751999457136,0.8914197248502789,0.2376623797623646,50.93431833973488,161.87513381288863,0.535400390625,0.34698486328125,0.25396728515625,-0.7269287109375,0.21087375691430543,50.933487712707674,-107.15247654305065,1.2517631476784115,,,,3,0,2,3
1788940368.9651392,1335543675.0,-7.47265625,-0.0078125,6.171875,0.08203125,-0.12109375,0.103515625,10.875,-9.5,-40.6875,10.875,-9.5,-40.6875,0.1430576532840796,-0.42408193681005335,0.0698986616929185,0.8915173558612445,0.29944486425607497,50.909584011701824,161.90999291855445,0.535400390625,0.34698486328125,0.25396728515625,-0.7269287109375,0.21087375691430543,50.933487712707674,-107.15247654305065,1.2677185176017514,,,,3,0,2,3
1788940368.9651392,1335548158.0,-7.4296875,0.109375,6.171875,0.08203125,-0.111328125,0.09765625,10.875,-9.5,-40.6875,10.875,-9.5,-40.6875,0.1429777341092696,-0.42375905251879803,0.07033002164236293,0.8916497748629415,0.3853124291426029,50.877672564299175,161.96341076325623,0.5357666015625,0.346923828125,0.253173828125,-0.7269287109375,0.3324396249413329,50.8650854216293,-107.0528211107452,1.520983118935966,,,,3,0,2,3
1788940368.9691699,1335552188.0,-7.46875,0.1484375,6.25,0.08203125,-0.111328125,0.09765625,10.875,-9.5,-40.6875,10.875,-9.5,-40.6875,0.1428975913448322,-0.42345486910545804,0.07071090723868949,0.8917770011702512,0.4623840396867477,50.8470706633392,162.01251610310484,0.5357666015625,0.346923828125,0.253173828125,-0.7269287109375,0.3324396249413329,50.8650854216293,-107.0528211107452,1.53478427045924,,,,3,0,2,3
1788940368.9757173,1335555318.0,-7.46875,0.1484375,6.2109375,0.07421875,-0.095703125,0.07421875,6.6875,-8.375,-38.0625,6.6875,-8.375,-38.0625,0.14280750152947289,-0.4231897358658017,0.07088034578704455,0.8919038297629692,0.5049121349591443,50.81714518861835,162.04640092735124,0.5357666015625,0.346923828125,0.253173828125,-0.7269287109375,0.3324396249413329,50.8650854216293,-107.0528211107452,1.5391862218830115,,,,3,0,3,3
1788940368.982265,1335559224.0,-7.47265625,0.1875,6.2109375,0.068359375,-0.091796875,0.060546875,6.6875,-8.375,-38.0625,6.6875,-8.375,-38.0625,0.14269898117385557,-0.42287979725498875,0.07110326849784597,0.8920504487160166,0.5588056395246885,50.78263987532236,162.08832815814245,0.53607177734375,0.34686279296875,0.2525634765625,-0.72698974609375,0.4230110584312739,50.815522707176825,-106.98906215489986,1.2258320850325057,,,,3,0,3,3
1788940368.982265,1335563783.0,-7.47265625,0.22265625,6.1328125,0.060546875,-0.0703125,0.041015625,7.4375,-9.8125,-37.75,7.4375,-9.8125,-37.75,0.14269908188492245,-0.422700224615715,0.07146980760644017,0.892106248571168,0.6232251303302211,50.7673657770913,162.119909023432,0.53607177734375,0.34686279296875,0.2525634765625,-0.72698974609375,0.4230110584312739,50.815522707176825,-106.98906215489986,1.2496771072541524,,,,3,0,3,3
1788940368.9956586,1335567389.0,-7.46875,0.1875,6.171875,0.0546875,-0.068359375,0.0234375,7.4375,-9.8125,-37.75,7.4375,-9.8125,-37.75,0.1427315535733041,-0.42255517933090114,0.0717357059329407,0.892148425167855,0.6678336579687537,50.754449177204194,162.1377616295533,0.5362548828125,0.3468017578125,0.2520751953125,-0.72711181640625,0.48694739522722885,50.77606739775626,-106.95683107252249,0.6709197233274076,,,,3,0,3,3
1788940368.9979155,1335571743.0,-7.51171875,0.26171875,6.1328125,0.0546875,-0.068359375,0.0234375,7.4375,-9.8125,-37.75,7.4375,-9.8125,-37.75,0.14275233349318256,-0.42240175128225715,0.07205896830875813,0.8921917041097225,0.7228186375925231,50.74159746730615,162.16200987372764,0.5362548828125,0.3468017578125,0.2520751953125,-0.72711181640625,0.48694739522722885,50.77606739775626,-106.95683107252249,0.7126498500356955,,,,3,0,3,3
1788940368.9982443,1335575525.0,-7.47265625,0.33984375,6.09375,0.04296875,-0.05859375,0.013671875,6.5625,-8.1875,-37.0625,6.5625,-8.1875,-37.0625,0.1426685426462283,-0.42226311489835383,0.07228202104747927,0.8922526873979326,0.7694330464938918,50.72853346914356,162.19572285569393,0.5362548828125,0.3468017578125,0.2520751953125,-0.72711181640625,0.48694739522722885,50.77606739775626,-106.95683107252249,0.7303167909715219,,,,3,0,3,3
1788940368.9962912,1335579532.0,-7.51171875,0.33984375,6.09375,0.04296875,-0.052734375,-0.005859375,6.5625,-8.1875,-37.0625,6.5625,-8.1875,-37.0625,0.1426112779412654,-0.4221506793982779,0.07250322204624814,0.8922970974291264,0.812859693460755,50.71872868074813,162.224285813883,0.53631591796875,0.34674072265625,0.251708984375,-0.7271728515625,0.5299354560991582,50.73907161523364,-106.92866043399069,1.214271580435396,,,,3,0,3,3
1788940369.0128129,1335583214.0,-7.546875,0.33984375,6.1328125,0.052734375,-0.052734375,-0.01953125,6.125,-9.25,-37.9375,6.125,-9.25,-37.9375,0.14265313266472987,-0.4220514752010015,0.07274007085729794,0.8923180588295142,0.8506132225146072,50.710973601914496,162.2372883759578,0.53631591796875,0.34674072265625,0.251708984375,-0.7271728515625,0.5299354560991582,50.73907161523364,-106.92866043399069,1.2347101670064744,,,,3,0,3,3
1788940369.0147805,1335587168.0,-7.58984375,0.37890625,6.09375,0.052734375,-0.052734375,-0.01953125,6.125,-9.25,-37.9375,6.125,-9.25,-37.9375,0.14269329873859352,-0.4219683169088456,0.0729885020093717,0.8923306789495934,0.8898750404936381,50.705453256296565,162.25106538043448,0.53631591796875,0.34674072265625,0.251708984375,-0.7271728515625,0.5299354560991582,50.73907161523364,-106.92866043399069,1.2561718959411214,,,,3,0,3,3
1788940369.0167181,1335591274.0,-7.58984375,0.37890625,6.09375,0.04296875,-0.056640625,-0.025390625,6.125,-9.25,-37.9375,6.125,-9.25,-37.9375,0.14273716220290106,-0.42187951993196965,0.07322183216684386,0.8923465338546255,0.9265785861896461,50.698932398179345,162.26321787059098,0.5362548828125,0.34661865234375,0.25146484375,-0.72735595703125,0.5377060389984687,50.70801311877393,-106.94458690089682,1.2917438793659022,,,,3,0,3,3
1788940369.009752,1335594857.0,-7.5859375,0.4140625,6.09375,0.03515625,-0.0625,-0.033203125,7.8125,-10.25,-37.4375,7.8125,-10.25,-37.4375,0.14282075020276816,-0.42179214378283053,0.07341254133823698,0.892358795288568,0.9532659501728633,50.691797539971894,162.26556873863595,0.5362548828125,0.34661865234375,0.25146484375,-0.72735595703125,0.5377060389984687,50.70801311877393,-106.94458690089682,1.311658300799909,,,,3,0,3,3
1788940369.0167181,1335598763.0,-7.62890625,0.37890625,6.09375,0.037109375,-0.068359375,-0.033203125,7.8125,-10.25,-37.4375,7.8125,-10.25,-37.4375,0.14291796855859776,-0.4216951575327026,0.0736195359256253,0.8923720145245749,0.9817809525000379,50.683793575247144,162.26708532467578,0.53619384765625,0.346435546875,0.251220703125,-0.72760009765625,0.5367234262267165,50.6727664042146,-106.97335371501514,1.0976685747817565,,,,3,0,3,3
1788940369.031383,1335602346.0,-7.58984375,0.37890625,6.05859375,0.033203125,-0.080078125,-0.033203125,6.4375,-9.75,-37.875,6.4375,-9.75,-37.875,0.14298743826966384,-0.4215923763089934,0.07379698942679311,0.8923947921669855,1.0078877804516129,50.674457122342844,162.27110887739963,0.53619384765625,0.346435546875,0.251220703125,-0.72760009765625,0.5367234262267165,50.6727664042146,-106.97335371501514,1.1194420200259079,,,,3,0,3,3
1788940369.0317855,1335606899.0,-7.546875,0.26171875,6.05859375,0.033203125,-0.080078125,-0.033203125,6.4375,-9.75,-37.875,6.4375,-9.75,-37.875,0.14309822697898086,-0.4214697467753426,0.07402056245934491,0.8924164422072258,1.0387459583069751,50.663583685305056,162.272164950802,0.53619384765625,0.346435546875,0.251220703125,-0.72760009765625,0.5367234262267165,50.6727664042146,-106.97335371501514,1.1487618232327446,,,,3,0,3,3
1788940369.0295286,1335610805.0,-7.58984375,0.26171875,6.01953125,0.03125,-0.091796875,-0.01953125,6.4375,-9.75,-37.875,6.4375,-9.75,-37.875,0.14316800139871655,-0.4213643388022626,0.07420374191192508,0.892439814243794,1.06581168957725,50.654034135434806,162.27660397492826,0.5361328125,0.34619140625,0.25091552734375,-0.72784423828125,0.5377585634417066,50.62359851279061,-106.99490171560886,1.3221792458277468,,,,3,0,3,3
1788940369.0317855,1335614388.0,-7.5078125,0.22265625,5.98046875,0.04296875,-0.10546875,-0.001953125,9.25,-9.3125,-42.9375,9.25,-9.3125,-42.9375,0.14314785350117337,-0.4212873140318055,0.07431086985721679,0.8924704956999628,1.086859304977319,50.64644819407151,162.2896160818632,0.5361328125,0.34619140625,0.25091552734375,-0.72784423828125,0.5377585634417066,50.62359851279061,-106.99490171560886,1.3297385971833866,,,,3,0,2,3
1788940369.0452826,1335618671.0,-7.5078125,0.26171875,5.98046875,0.064453125,-0.115234375,0.009765625,9.25,-9.3125,-42.9375,9.25,-9.3125,-42.9375,0.1431123907547432,-0.421151733809885,0.07451477946416468,0.8925231696503998,1.1263562471774298,50.633389632671744,162.31364650055323,0.53619384765625,0.345947265625,0.25048828125,-0.72808837890625,0.5623723621606886,50.56817731589988,-106.99899821993066,1.1238041357129034,,,,3,0,2,3
1788940369.0443888,1335621924.0,-7.51171875,0.33984375,6.01953125,0.064453125,-0.115234375,0.009765625,9.25,-9.3125,-42.9375,9.25,-9.3125,-42.9375,0.14307149329288432,-0.42101404981883944,0.0747032705766307,0.8925789259372187,1.1638428464687127,50.61975297440726,162.3374495592477,0.53619384765625,0.345947265625,0.25048828125,-0.72808837890625,0.5623723621606886,50.56817731589988,-106.99899821993066,1.1391238661441294,,,,3,0,2,3
1788940369.0483239,1335626407.0,-7.5078125,0.30078125,6.05859375,0.07421875,-0.134765625,0.029296875,9.1875,-7.4375,-42.8125,9.1875,-7.4375,-42.8125,0.14297657487548643,-0.42073490964711474,0.07465640917249056,0.892729665358208,1.1718511383744044,50.58373040507873,162.35568904856848,0.53619384765625,0.345947265625,0.25048828125,-0.72808837890625,0.5623723621606886,50.56817731589988,-106.99899821993066,1.1282203862953848,,,,3,0,2,3
1788940369.0483239,1335630213.0,-7.51171875,0.33984375,6.09375,0.091796875,-0.134765625,0.044921875,9.1875,-7.4375,-42.8125,9.1875,-7.4375,-42.8125,0.14286876212545443,-0.4204779548304009,0.07467070523643154,0.8928667829468613,1.1900076945482616,50.55166349218473,162.38010092127436,0.53631591796875,0.345703125,0.24981689453125,-0.72833251953125,0.6225611464884088,50.491950260838784,-106.97537043945036,1.1909202676507258,,,,3,0,2,3
1788940369.0639598,1335633996.0,-7.47265625,0.37890625,6.09375,0.087890625,-0.138671875,0.0625,8.875,-9.3125,-43.0625,8.875,-9.3125,-43.0625,0.14273150826777153,-0.4202064314248786,0.07497399681576944,0.8929911373234591,1.257185857508472,50.52333183731148,162.4311073116085,0.53631591796875,0.345703125,0.24981689453125,-0.72833251953125,0.6225611464884088,50.491950260838784,-106.97537043945036,1.2099411536683908,,,,3,0,2,3
1788940369.068605,1335637702.0,-7.43359375,0.30078125,6.1328125,0.099609375,-0.138671875,0.083984375,8.875,-9.3125,-43.0625,8.875,-9.3125,-43.0625,0.14255040036481792,-0.41988194178261623,0.07526644412433478,0.8931480844236124,1.3274661546427649,50.48806131837446,162.48957163039478,0.53656005859375,0.34552001953125,0.2490234375,-0.728515625,0.7147639603521851,50.41369021065252,-106.92189032183971,1.153409725186769,,,,3,0,2,3
1788940369.0666084,1335642032.0,-7.43359375,0.30078125,6.1328125,0.099609375,-0.138671875,0.083984375,8.875,-9.3125,-43.0625,8.875,-9.3125,-43.0625,0.14232956757520657,-0.419509122473868,0.07559937970330124,0.8933303555480112,1.4085743206382715,50.44741890270976,162.55847197342592,0.53656005859375,0.34552001953125,0.2490234375,-0.728515625,0.7147639603521851,50.41369021065252,-106.92189032183971,1.1716820778335446,,,,3,0,2,3
1788940369.068605,1335645638.0,-7.43359375,0.30078125,6.05859375,0.099609375,-0.125,0.09765625,8.9375,-7.9375,-40.5,8.9375,-7.9375,-40.5,0.14212328171828606,-0.4192913530476599,0.07569828567668242,0.8934570519049578,1.4465683546915888,50.42170060451049,162.60430379181668,0.53656005859375,0.34552001953125,0.2490234375,-0.728515625,0.7147639603521851,50.41369021065252,-106.92189032183971,1.170042482948031,,,,3,0,2,3
1788940369.068605,1335649544.0,-7.43359375,0.30078125,6.1328125,0.109375,-0.1171875,0.10546875,8.9375,-7.9375,-40.5,8.9375,-7.9375,-40.5,0.14190609548016997,-0.41900963194235,0.0758203314927869,0.8936133759839505,1.4908467281377522,50.38838046921491,162.65489764183417,0.536865234375,0.345458984375,0.24810791015625,-0.72857666015625,0.8437145989865703,50.33483090954994,-106.82832868712754,1.5205569219407113,,,,3,0,2,3
1788940369.0818806,1335653527.0,-7.39453125,0.30078125,6.1328125,0.10546875,-0.10546875,0.12109375,6.4375,-9.75,-37.875,6.4375,-9.75,-37.875,0.1417948438042027,-0.4187620947279588,0.07627772895155233,0.8937081393584749,1.5795774454935203,50.365902114435514,162.712063853696,0.536865234375,0.345458984375,0.24810791015625,-0.72857666015625,0.8437145989865703,50.33483090954994,-106.82832868712754,1.549476678438487,,,,3,0,3,3
1788940369.0818806,1335657033.0,-7.4296875,0.30078125,6.171875,0.12109375,-0.0859375,0.119140625,6.4375,-9.75,-37.875,6.4375,-9.75,-37.875,0.14171050685742365,-0.41856900956362764,0.0767081309446386,0.8937751278292075,1.6603282240516792,50.34974357332859,162.76162977667977,0.5372314453125,0.34552001953125,0.24725341796875,-0.72857666015625,0.9828919497692417,50.2767481317132,-106.72727911676068,1.487922113188651,,,,3,0,3,3
1788940369.0818806,1335661386.0,-7.43359375,0.30078125,6.2109375,0.12109375,-0.0859375,0.119140625,6.4375,-9.75,-37.875,6.4375,-9.75,-37.875,0.14160857148181935,-0.4183118744150909,0.07724026254777715,0.8938658344783976,1.7604154758741748,50.327419128536036,162.82280934285072,0.5372314453125,0.34552001953125,0.24725341796875,-0.72857666015625,0.9828919497692417,50.2767481317132,-106.72727911676068,1.5242766420774465,,,,3,0,3,3
1788940369.0818806,1335665469.0,-7.39453125,0.30078125,6.25,0.12109375,-0.05859375,0.119140625,5.875,-9.125,-37.25,5.875,-9.125,-37.25,0.14147461500708672,-0.41804352332869515,0.0776939064416169,0.8939732673930292,1.8506314878377896,50.30209402018334,162.88358014781016,0.5372314453125,0.34552001953125,0.24725341796875,-0.72857666015625,0.9828919497692417,50.2767481317132,-106.72727911676068,1.555271880092108,,,,3,0,3,3
1788940369.097999,1335669275.0,-7.39453125,0.30078125,6.2890625,0.11328125,-0.041015625,0.1171875,5.875,-9.125,-37.25,5.875,-9.125,-37.25,0.14134944923599643,-0.417809232027014,0.07807994719748008,0.8940689574520054,1.9283503342341273,50.27974069641006,162.9371637335567,0.53753662109375,0.34576416015625,0.2464599609375,-0.728515625,1.1308711710310377,50.24192418164465,-106.62398149661291,1.462491013197694,,,,3,0,3,3
1788940369.097999,1335672858.0,-7.35546875,0.26171875,6.2890625,0.111328125,-0.013671875,0.115234375,6.5625,-7.6875,-36.625,6.5625,-7.6875,-36.625,0.14120331724902305,-0.4176578880667929,0.07822390347848528,0.894150173437352,1.9666868402419757,50.26316124346669,162.97468836238988,0.53753662109375,0.34576416015625,0.2464599609375,-0.728515625,1.1308711710310377,50.24192418164465,-106.62398149661291,1.4683976958646883,,,,3,0,3,3
1788940369.097999,1335677011.0,-7.3515625,0.30078125,6.25,0.111328125,-0.013671875,0.115234375,6.5625,-7.6875,-36.625,6.5625,-7.6875,-36.625,0.14101189548518925,-0.4174843522297717,0.07839781094400468,0.8942461876989748,2.0138571763023303,50.244247515774674,163.02224512579613,0.53753662109375,0.34576416015625,0.2464599609375,-0.728515625,1.1308711710310377,50.24192418164465,-106.62398149661291,1.4756649666070996,,,,3,0,3,3
1788940369.097999,1335680718.0,-7.3203125,0.26171875,6.25,0.1015625,0.00390625,0.103515625,6.5625,-7.6875,-36.625,6.5625,-7.6875,-36.625,0.14087005793982135,-0.4173671901143282,0.0785183467387176,0.8943126548458991,2.047147608755801,50.231496563101345,163.05662524560304,0.53778076171875,0.34619140625,0.24578857421875,-0.7283935546875,1.2800049449785167,50.23621020442668,-106.52445759955205,1.1748049665903804,,,,3,0,3,3
1788940369.114644,1335684700.0,-7.32421875,0.26171875,6.32421875,0.095703125,0.01953125,0.1015625,7.3125,-10.5625,-36.8125,7.3125,-10.5625,-36.8125,0.1408144406591715,-0.41730753427946654,0.07895904813418655,0.8943104516068118,2.1234596367986773,50.23210916977483,163.0993316829472,0.53778076171875,0.34619140625,0.24578857421875,-0.7283935546875,1.2800049449785167,50.23621020442668,-106.52445759955205,1.2160933954886033,,,,3,0,3,3
1788940369.1123698,1335688407.0,-7.3203125,0.22265625,6.2890625,0.087890625,0.0390625,0.099609375,7.3125,-10.5625,-36.8125,7.3125,-10.5625,-36.8125,0.14076833469099614,-0.41729286273863025,0.07935881713284419,0.8942891706819435,2.191319431239879,50.23759706271697,163.13662555661355,0.5379638671875,0.34661865234375,0.245361328125,-0.7281494140625,1.3993630384183746,50.24368903866739,-106.42501196844731,1.5536140792406756,,,,3,0,3,3
1788940369.114644,1335692966.0,-7.3203125,0.1875,6.2890625,0.080078125,0.0390625,0.091796875,7.25,-9.625,-36.75,7.25,-9.625,-36.75,0.1407377896672185,-0.4172198478346241,0.07976837910776552,0.8942916072663091,2.2610748459133907,50.235973362434116,163.17316712728268,0.5379638671875,0.34661865234375,0.245361328125,-0.7281494140625,1.3993630384183746,50.24368903866739,-106.42501196844731,1.5845565465872191,,,,3,0,3,3
1788940369.114644,1335697043.0,-7.32421875,0.22265625,6.32421875,0.080078125,0.0390625,0.091796875,7.25,-9.625,-36.75,7.25,-9.625,-36.75,0.14069312041906284,-0.4171448243254799,0.08013138945104052,0.8943011807159025,2.3245167600000576,50.233180525419016,163.2086237739322,0.5379638671875,0.34661865234375,0.245361328125,-0.7281494140625,1.3993630384183746,50.24368903866739,-106.42501196844731,1.6120322066155854,,,,3,0,3,3
1788940369.114644,1335700749.0,-7.35546875,0.1484375,6.32421875,0.07421875,0.048828125,0.08203125,7.25,-9.625,-36.75,7.25,-9.625,-36.75,0.14070318021114167,-0.4170976026691659,0.08041006816697342,0.8942966095560736,2.3695370745867406,50.23244247628872,163.22836921367977,0.5380859375,0.34710693359375,0.2449951171875,-0.72796630859375,1.5105588953233777,50.26607114667866,-106.34840112139256,1.4953780774096084,,,,3,0,3,3
1788940369.1315858,1335704232.0,-7.43359375,0.1875,6.32421875,0.07421875,0.056640625,0.080078125,6.1875,-8.625,-39.5,6.1875,-8.625,-39.5,0.14060734171685585,-0.4171080717527059,0.08044468488574158,0.8943036870144798,2.382177733904231,50.234139954212345,163.24646298389555,0.5380859375,0.34710693359375,0.2449951171875,-0.72796630859375,1.5105588953233777,50.26607114667866,-106.34840112139256,1.4938496260499448,,,,3,0,3,3
1788940369.1315858,1335708514.0,-7.4296875,0.1484375,6.32421875,0.056640625,0.05859375,0.0703125,6.1875,-8.625,-39.5,6.1875,-8.625,-39.5,0.1405035806092045,-0.4171385678263858,0.08044024086227808,0.8943061705689854,2.3886664656862755,50.23760429625762,163.26261772024202,0.5382080078125,0.34759521484375,0.2447509765625,-0.72772216796875,1.6089069235798943,50.296394537174095,-106.27054398929884,1.4788060842400519,,,,3,0,3,3
1788940369.1296327,1335712744.0,-7.47265625,0.1484375,6.32421875,0.056640625,0.05859375,0.0703125,6.1875,-8.625,-39.5,6.1875,-8.625,-39.5,0.14040015760035532,-0.4171806140398757,0.08042934679108935,0.8943037801496013,2.39380328455295,50.242398145831714,163.2780351599227,0.5382080078125,0.34759521484375,0.2447509765625,-0.72772216796875,1.6089069235798943,50.296394537174095,-106.27054398929884,1.4727179729201585,,,,3,0,3,3
1788940369.1315858,1335716150.0,-7.51171875,0.0703125,6.36328125,0.044921875,0.0546875,0.06640625,10.125,-10.0,-41.25,10.125,-10.0,-41.25,0.1404524293683329,-0.41719472518522427,0.08048885567141836,0.8942836353612115,2.3989417736128162,50.24540443262815,163.27358981059223,0.5382080078125,0.34759521484375,0.2447509765625,-0.72772216796875,1.6089069235798943,50.296394537174095,-106.27054398929884,1.4797488273549273,,,,3,0,3,3
1788940369.1461127,1335720157.0,-7.5078125,0.03125,6.36328125,0.03515625,0.0546875,0.06640625,10.125,-10.0,-41.25,10.125,-10.0,-41.25,0.14049849657616906,-0.4172272792989931,0.0805141728825534,0.8942589322079117,2.3986137153293785,50.25007624884722,163.26730907735737,0.53826904296875,0.3480224609375,0.24462890625,-0.7275390625,1.6791557063870037,50.331642239387854,-106.220178004882,1.2883776682061177,,,,3,0,3,3
1788940369.1450124,1335723939.0,-7.55078125,0.03125,6.36328125,0.03515625,0.05078125,0.068359375,9.75,-8.0,-43.4375,9.75,-8.0,-43.4375,0.14040429665855406,-0.4172814431932012,0.08045605816180063,0.8942536851204365,2.3951769400952387,50.25554291265254,163.2775134833347,0.53826904296875,0.3480224609375,0.24462890625,-0.7275390625,1.6791557063870037,50.331642239387854,-106.220178004882,1.2773307345104994,,,,3,0,2,3
1788940369.1541097,1335727746.0,-7.5859375,-0.0078125,6.36328125,0.025390625,0.04296875,0.05859375,9.75,-8.0,-43.4375,9.75,-8.0,-43.4375,0.14032384100770726,-0.41733436526331075,0.08036956758470531,0.8942493946441119,2.386172853959003,50.26036891489398,163.2833891755246,0.53839111328125,0.348388671875,0.2445068359375,-0.727294921875,1.7498722695795097,50.35777183574324,-106.15312028218273,1.3923891794035963,,,,3,0,2,3
1788940369.1521566,1335731875.0,-7.62890625,-0.04296875,6.32421875,0.025390625,0.04296875,0.05859375,9.75,-8.0,-43.4375,9.75,-8.0,-43.4375,0.14023992117472509,-0.41740858154126304,0.08027423550016381,0.8942364830845819,2.3754743102385314,50.26769425209641,163.28879652247852,0.53839111328125,0.348388671875,0.2445068359375,-0.727294921875,1.7498722695795097,50.35777183574324,-106.15312028218273,1.3797198302613394,,,,3,0,2,3
1788940369.1541097,1335735682.0,-7.6640625,-0.04296875,6.2890625,0.021484375,0.0390625,0.0546875,8.875,-10.8125,-43.5625,8.875,-10.8125,-43.5625,0.14027361867679047,-0.4175394602879988,0.08024840549535525,0.894172413140317,2.365385999930734,50.28371796285462,163.27899404989478,0.53839111328125,0.348388671875,0.2445068359375,-0.727294921875,1.7498722695795097,50.35777183574324,-106.15312028218273,1.3778428941592638,,,,3,0,2,3
1788940369.1654866,1335739688.0,-7.6640625,-0.04296875,6.2890625,0.021484375,0.025390625,0.056640625,8.875,-10.8125,-43.5625,8.875,-10.8125,-43.5625,0.1403086573703248,-0.41765104425557287,0.08021843006443283,0.8941174919311018,2.355018491365395,50.29724940044594,163.26900567638353,0.53851318359375,0.3486328125,0.24444580078125,-0.72711181640625,1.797905874212223,50.37765995330592,-106.10441547982587,1.3462402101139652,,,,3,0,2,3
1788940369.1654866,1335743471.0,-7.6640625,-0.08203125,6.36328125,0.021484375,0.0234375,0.052734375,8.9375,-8.9375,-40.5625,8.9375,-8.9375,-40.5625,0.1402854321628705,-0.4176957941529805,0.08012214717819865,0.8941088650725608,2.3402387327093894,50.30102345326526,163.2648945773372,0.53851318359375,0.3486328125,0.24444580078125,-0.72711181640625,1.797905874212223,50.37765995330592,-106.10441547982587,1.3370859457484565,,,,3,0,2,3
1788940369.1734369,1335747854.0,-7.62890625,-0.04296875,6.32421875,0.017578125,0.015625,0.048828125,8.9375,-8.9375,-40.5625,8.9375,-8.9375,-40.5625,0.14026097751721608,-0.4177367165339404,0.07999627276657895,0.8941048541355832,2.320911355782487,50.303768136840986,163.25886529193681,0.53863525390625,0.348876953125,0.24432373046875,-0.7269287109375,1.8537849013447836,50.3916281795312,-106.04947354299168,1.4347319790973019,,,,3,0,2,3
1788940369.1734369,1335751430.0,-7.58984375,-0.0078125,6.32421875,0.017578125,0.015625,0.048828125,8.9375,-8.9375,-40.5625,8.9375,-8.9375,-40.5625,0.1402387585782475,-0.4177576961057559,0.07989270733646851,0.8941077973327893,2.305497426752113,50.30442947149714,163.25447880728302,0.53863525390625,0.348876953125,0.24432373046875,-0.7269287109375,1.8537849013447836,50.3916281795312,-106.04947354299168,1.4263676220753159,,,,3,0,2,3
1788940369.1816869,1335755213.0,-7.58984375,-0.0078125,6.32421875,0.017578125,0.017578125,0.037109375,6.3125,-12.9375,-37.1875,6.3125,-12.9375,-37.1875,0.1402865487276256,-0.41780269036144574,0.08010991335533438,0.8940598402540124,2.3354409906830194,50.31420521955178,163.26186730271178,0.53863525390625,0.348876953125,0.24432373046875,-0.7269287109375,1.8537849013447836,50.3916281795312,-106.04947354299168,1.4430562052973726,,,,3,0,3,3
1788940369.1816869,1335758719.0,-7.546875,0.03125,6.32421875,0.021484375,0.01171875,0.0390625,6.3125,-12.9375,-37.1875,6.3125,-12.9375,-37.1875,0.1403274834759523,-0.41782651770749296,0.08032166364239957,0.8940232820410515,2.3655914177250947,50.321208121026636,163.2703702826546,0.53875732421875,0.3489990234375,0.24420166015625,-0.72686767578125,1.8920213086351327,50.39728921429322,-106.02043395214503,1.1043310782417881,,,,3,0,3,3
1788940369.1816869,1335762702.0,-7.55078125,0.03125,6.36328125,0.0078125,0.017578125,0.029296875,7.25,-10.625,-37.1875,7.25,-10.625,-37.1875,0.14042712102947824,-0.41784733739533875,0.08049064774931712,0.8939827078506013,2.3844398643330043,50.3272016040777,163.26611805844647,0.53875732421875,0.3489990234375,0.24420166015625,-0.72686767578125,1.8920213086351327,50.39728921429322,-106.02043395214503,1.1263551125696785,,,,3,0,3,3
1788940369.1816869,1335766655.0,-7.5078125,0.03125,6.36328125,0.0078125,0.017578125,0.029296875,7.25,-10.625,-37.1875,7.25,-10.625,-37.1875,0.1405274912215677,-0.4178506192649358,0.08065229703620959,0.8939508326377156,2.4025080089678594,50.3308652663209,163.2615206034277,0.53875732421875,0.3489990234375,0.24420166015625,-0.72686767578125,1.8920213086351327,50.39728921429322,-106.02043395214503,1.1480215854949918,,,,3,0,3,3
1788940369.1816869,1335770761.0,-7.46875,0.03125,6.36328125,-0.00390625,0.015625,0.021484375,7.25,-10.625,-37.1875,7.25,-10.625,-37.1875,0.14063565701611042,-0.41783919910592027,0.08078390824945543,0.8939272765913979,2.4155385601187844,50.3321544164087,163.25368375645195,0.538818359375,0.34912109375,0.244140625,-0.72674560546875,1.9213234193524498,50.40234614665783,-105.98610289127156,1.4483683033121884,,,,3,0,3,3
1788940369.1982906,1335774544.0,-7.43359375,-0.0078125,6.36328125,-0.005859375,0.01953125,0.01953125,6.1875,-8.1875,-37.0625,6.1875,-8.1875,-37.0625,0.1406189958843331,-0.4178306304656187,0.08062215062548683,0.8939485058266537,2.3911257847925906,50.32804696775389,163.24460699011803,0.538818359375,0.34912109375,0.244140625,-0.72674560546875,1.9213234193524498,50.40234614665783,-105.98610289127156,1.4360280579051932,,,,3,0,3,3
1788940369.1982906,1335779027.0,-7.39453125,-0.04296875,6.40234375,-0.01171875,0.0234375,0.01953125,6.1875,-8.1875,-37.0625,6.1875,-8.1875,-37.0625,0.1405970422630907,-0.4178180048936087,0.08042810484221585,0.8939753388349617,2.3620561428454625,50.32281885136758,163.2340881093783,0.538818359375,0.3492431640625,0.24420166015625,-0.7266845703125,1.928545955190988,50.420378961887636,-105.98007954973336,1.2951834801552635,,,,3,0,3,3
1788940369.2112224,1335782610.0,-7.39453125,-0.04296875,6.36328125,-0.013671875,0.025390625,0.01953125,6.9375,-11.125,-37.3125,6.9375,-11.125,-37.3125,0.1406898048941238,-0.4178222430764565,0.08051729123560655,0.8939507356680749,2.3690742404596716,50.32524503068943,163.22535948834897,0.538818359375,0.3492431640625,0.24420166015625,-0.7266845703125,1.928545955190988,50.420378961887636,-105.98007954973336,1.3079906882210643,,,,3,0,3,3
1788940369.21319,1335786386.0,-7.39453125,-0.0078125,6.36328125,-0.013671875,0.025390625,0.01953125,6.9375,-11.125,-37.3125,6.9375,-11.125,-37.3125,0.14077799119403425,-0.41782429690791373,0.08062442907655072,0.8939262360759193,2.379377772828159,50.32771894637237,163.21875065646753,0.538818359375,0.3492431640625,0.24420166015625,-0.7266845703125,1.928545955190988,50.420378961887636,-105.98007954973336,1.3219301317862646,,,,3,0,3,3
1788940369.2147837,1335790293.0,-7.3515625,-0.0078125,6.36328125,-0.005859375,0.037109375,0.01953125,6.9375,-11.125,-37.3125,6.9375,-11.125,-37.3125,0.1408707156578932,-0.41783287864304025,0.08074524294362823,0.8938967125663221,2.3913537609835083,50.331278647726165,163.21228910280448,0.53887939453125,0.349365234375,0.2442626953125,-0.7265625,1.94229016055763,50.437261808449456,-105.95814728639249,1.3271839131598635,,,,3,0,3,3
1788940369.2147837,1335794852.0,-7.390625,-0.0078125,6.32421875,-0.005859375,0.037109375,0.013671875,6.3125,-9.5625,-36.875,6.3125,-9.5625,-36.875,0.14097528037321236,-0.4178282817921073,0.08064294563908067,0.893891611201829,2.3670077810941486,50.329085251252216,163.18761137234972,0.53887939453125,0.349365234375,0.2442626953125,-0.7265625,1.94229016055763,50.437261808449456,-105.95814728639249,1.3266830363308684,,,,3,0,3,3
1788940369.2237577,1335798158.0,-7.39453125,0.03125,6.36328125,0.00390625,0.052734375,0.013671875,6.3125,-9.5625,-36.875,6.3125,-9.5625,-36.875,0.1410459735380669,-0.41782610636460527,0.08060881973809203,0.8938845542738303,2.356137984989672,50.32836623696338,163.17350323259924,0.538818359375,0.34954833984375,0.24432373046875,-0.72650146484375,1.951870605907075,50.46059905217765,-105.95505092239304,1.3085816825044303,,,,3,0,3,3
