pc_unix,dev_us,ax,ay,az,gx,gy,gz,mx_raw,my_raw,mz_raw,mx,my,mz,host_qw,host_qx,host_qy,host_qz,host_roll,host_pitch,host_yaw,chip_qw,chip_qx,chip_qy,chip_qz,chip_roll,chip_pitch,chip_yaw,diff_deg,rel_roll,rel_pitch,rel_yaw,cal_acc,cal_gyr,cal_mag,cal_rv
1788940060.9836166,1027552664.0,-8.5078125,1.1796875,4.6796875,0.029296875,0.01171875,-0.029296875,13.8125,-10.4375,-34.3125,13.8125,-10.4375,-34.3125,0.12173558305621152,-0.4989941719233434,0.13242365706368933,0.8477318203620644,12.442822557280207,61.43411207563173,171.06806826384576,0.51556396484375,0.44586181640625,0.25799560546875,-0.6846923828125,12.779683277085672,61.23286292087147,-98.45293734201235,0.9586580181989427,,,,3,0,3,3
1788940060.987429,1027559377.0,-8.5078125,1.1796875,4.6796875,0.029296875,0.0234375,-0.044921875,14.0,-11.0625,-35.0625,14.0,-11.0625,-35.0625,0.12176048892153224,-0.4988899277623708,0.1323691274866061,0.8477981112288943,12.428010019500118,61.42006220604544,171.05510124041677,0.515380859375,0.44598388671875,0.25799560546875,-0.684814453125,12.773752179876686,61.25448652808722,-98.495619164505,0.0,,,,3,0,3,3
1788940060.989382,1027560154.0,-8.47265625,1.21875,4.640625,0.029296875,0.0234375,-0.044921875,14.0,-11.0625,-35.0625,14.0,-11.0625,-35.0625,0.12175890778397098,-0.4988781134853364,0.13236882420565632,0.8478053377037552,12.428082829887193,61.41846758699413,171.05525775038055,0.515380859375,0.44598388671875,0.25799560546875,-0.684814453125,12.773752179876686,61.25448652808722,-98.495619164505,0.0,,,,3,0,3,3
1788940060.9960814,1027564136.0,-8.4296875,1.21875,4.640625,0.02734375,0.0234375,-0.04296875,14.0,-11.0625,-35.0625,14.0,-11.0625,-35.0625,0.12175370101058446,-0.49881385242052684,0.13236724810994743,0.8478441416624978,12.42808299765667,61.40984438207698,171.0554205232861,0.51513671875,0.446044921875,0.258056640625,-0.68487548828125,12.74690170443219,61.26341751599696,-98.52904838003896,0.9083297023744922,,,,3,0,3,3
1788940061.0000165,1027567689.0,-8.47265625,1.2578125,4.640625,0.02734375,0.0234375,-0.04296875,14.3125,-12.1875,-33.4375,14.3125,-12.1875,-33.4375,0.1218017667841726,-0.49879917007244723,0.13253958524223253,0.847818952304741,12.457881025620681,61.410404850542804,171.06649042610889,0.51513671875,0.446044921875,0.258056640625,-0.68487548828125,12.74690170443219,61.26341751599696,-98.52904838003896,0.910053091718387,,,,3,0,3,3
1788940061.001615,1027571796.0,-8.4296875,1.2578125,4.640625,0.017578125,0.021484375,-0.048828125,14.3125,-12.1875,-33.4375,14.3125,-12.1875,-33.4375,0.1218580527732604,-0.4987751754114076,0.13271105199783917,0.8477981576090242,12.486459106866166,61.40983965226732,171.0756601677769,0.51513671875,0.446044921875,0.258056640625,-0.68487548828125,12.74690170443219,61.26341751599696,-98.52904838003896,0.9120827723465281,,,,3,0,3,3
1788940061.0145707,1027579685.0,-8.390625,1.2578125,4.6796875,0.029296875,0.025390625,-0.04296875,13.75,-14.875,-35.5,13.75,-14.875,-35.5,0.12204879171431199,-0.49877745325980305,0.13311989123291484,0.8477052784540617,12.54805696439885,61.41721988140945,171.0865889169454,0.51483154296875,0.4461669921875,0.2581787109375,-0.68499755859375,12.712114503521036,61.292546984345336,-98.59158221415508,0.7151076627267932,,,,3,0,3,3
1788940061.01673,1027579961.0,-8.46875,1.296875,4.6796875,0.029296875,0.025390625,-0.04296875,13.75,-14.875,-35.5,13.75,-14.875,-35.5,0.1220551850959631,-0.4987780057432856,0.13313430762797732,0.8477017688493755,12.550272038916088,61.41753808393938,171.08704834830485,0.51483154296875,0.4461669921875,0.2581787109375,-0.68499755859375,12.712114503521036,61.292546984345336,-98.59158221415508,0.7155298896055113,,,,3,0,3,3
1788940061.0177739,1027584644.0,-8.47265625,1.3359375,4.6796875,0.017578125,0.021484375,-0.029296875,13.75,-14.875,-35.5,13.75,-14.875,-35.5,0.1221187629049667,-0.498779065650619,0.13337047214154563,0.8476548640667363,12.591506041837253,61.42108505538942,171.10294381394505,0.5146484375,0.44622802734375,0.25823974609375,-0.68505859375,12.691519461814925,61.30523695281558,-98.62364210280182,0.8749960568588707,,,,3,0,3,3
1788940061.0227273,1027589050.0,-8.5078125,1.375,4.71484375,0.01171875,0.025390625,-0.029296875,14.0625,-15.375,-35.5,14.0625,-15.375,-35.5,0.12217329309353786,-0.49879215548776634,0.1335833764837605,0.8476057772371225,12.629087302875883,61.42585131218469,171.11799455712267,0.5146484375,0.44622802734375,0.25823974609375,-0.68505859375,12.691519461814925,61.30523695281558,-98.62364210280182,0.8809979506084391,,,,3,0,3,3
1788940061.0247295,1027591604.0,-8.43359375,1.375,4.75390625,0.01171875,0.025390625,-0.029296875,14.0625,-15.375,-35.5,14.0625,-15.375,-35.5,0.12220494295508019,-0.4987918133107219,0.13370491782661578,0.8475822519617346,12.65044048463254,61.42754200061322,171.1263913692919,0.5146484375,0.44622802734375,0.25823974609375,-0.68505859375,12.691519461814925,61.30523695281558,-98.62364210280182,0.8845985357839166,,,,3,0,3,3
1788940061.028771,1027598886.0,-8.46875,1.3359375,4.75390625,0.005859375,0.025390625,-0.021484375,14.0625,-15.375,-35.5,14.0625,-15.375,-35.5,0.12226840005762385,-0.4987939849639896,0.1340489451752271,0.8475174801787283,12.714074154696737,61.432353719471394,171.1555757882986,0.51446533203125,0.44635009765625,0.25830078125,-0.68511962890625,12.681070624248157,61.32791407788585,-98.65630480803476,0.5713711458817793,,,,3,0,3,3
1788940061.033528,1027603369.0,-8.47265625,1.296875,4.71484375,-0.005859375,0.025390625,-0.015625,13.75,-12.3125,-36.9375,13.75,-12.3125,-36.9375,0.12218891353840872,-0.4987165317176436,0.1340942566027095,0.8475673546957756,12.732653970779241,61.4213593128236,171.17653146412974,0.51446533203125,0.44635009765625,0.25830078125,-0.68511962890625,12.681070624248157,61.32791407788585,-98.65630480803476,0.5715213372846804,,,,3,0,3,3
1788940061.033528,1027607429.0,-8.47265625,1.296875,4.75390625,-0.00390625,0.03125,-0.009765625,16.3125,-13.375,-39.8125,16.3125,-13.375,-39.8125,0.12212251942391393,-0.49865106451427416,0.13415865533635307,0.8476052508725265,12.753659067697527,61.41234653637393,171.19726934228996,0.514404296875,0.4464111328125,0.2584228515625,-0.68511962890625,12.668708851736033,61.349140331605454,-98.67523372014215,0.0,,,,3,0,2,3
1788940061.033528,1027611535.0,-8.4296875,1.296875,4.75390625,-0.01171875,0.02734375,-0.001953125,16.3125,-13.375,-39.8125,16.3125,-13.375,-39.8125,0.12203848164282681,-0.49857623636181153,0.13421211563547483,0.847652908654394,12.774464188500952,61.401712135281635,171.22016134223196,0.514404296875,0.4464111328125,0.2584228515625,-0.68511962890625,12.668708851736033,61.349140331605454,-98.67523372014215,0.0,,,,3,0,2,3
1788940061.0459328,1027615118.0,-8.51171875,1.2578125,4.6796875,-0.01953125,0.02734375,0.0,16.3125,-13.375,-39.8125,16.3125,-13.375,-39.8125,0.12193741554494533,-0.49852055484394575,0.13426591654664616,0.8476916814161815,12.797496222068355,61.393364599112644,171.24681161831617,0.51434326171875,0.44647216796875,0.25860595703125,-0.68499755859375,12.655596340776565,61.36485145350753,-98.6653666460278,0.8243077537366464,,,,3,0,2,3
1788940061.047886,1027619224.0,-8.54296875,1.296875,4.6796875,-0.0234375,0.02734375,0.001953125,16.4375,-12.5625,-40.6875,16.4375,-12.5625,-40.6875,0.12178763920085924,-0.49847777628944007,0.1341857296283622,0.8477510645510983,12.798731316408546,61.38462116078831,171.26719727627165,0.51434326171875,0.44647216796875,0.25860595703125,-0.68499755859375,12.655596340776565,61.36485145350753,-98.6653666460278,0.8214587069913234,,,,3,0,2,3
1788940061.0459328,1027624683.0,-8.5390625,1.296875,4.71484375,-0.0234375,0.025390625,0.0078125,16.4375,-12.5625,-40.6875,16.4375,-12.5625,-40.6875,0.1215925736647444,-0.4984057508056144,0.13408850664170893,0.8478367920655908,12.801723898642106,61.37114634510099,171.29441622722018,0.51434326171875,0.446533203125,0.25872802734375,-0.6849365234375,12.653258674420584,61.38335031970908,-98.66419219808942,0.4747276542831969,,,,3,0,2,3
1788940061.047886,1027629289.0,-8.54296875,1.21875,4.75390625,-0.025390625,0.03125,0.0078125,17.125,-12.5625,-40.25,17.125,-12.5625,-40.25,0.12146170722409408,-0.49835025009140355,0.13398561247495125,0.8479044389326879,12.79588465916326,61.36077095781622,171.3079718264717,0.51434326171875,0.446533203125,0.25872802734375,-0.6849365234375,12.653258674420584,61.38335031970908,-98.66419219808942,0.4701591702911582,,,,3,0,2,3
1788940061.064682,1027630943.0,-8.578125,1.21875,4.6796875,-0.025390625,0.03125,0.0078125,17.125,-12.5625,-40.25,17.125,-12.5625,-40.25,0.12140246088623127,-0.49833629406550717,0.1339443812773006,0.8479276403279142,12.794415778458966,61.357611612850185,171.3149024407598,0.51434326171875,0.446533203125,0.25872802734375,-0.6849365234375,12.653258674420584,61.38335031970908,-98.66419219808942,0.46869890834377703,,,,3,0,2,3
1788940061.0677521,1027634325.0,-8.58203125,1.1796875,4.6796875,-0.025390625,0.021484375,0.01171875,17.125,-12.5625,-40.25,17.125,-12.5625,-40.25,0.12129141944364308,-0.49829859970216067,0.13383954891436217,0.847982235810758,12.785889819007835,61.349879945276534,171.32437688649526,0.514404296875,0.44659423828125,0.2589111328125,-0.684814453125,12.65287507427256,61.40663179983495,-98.65132935102139,0.0,,,,3,0,2,3
1788940061.0743604,1027642508.0,-8.62109375,1.10546875,4.640625,-0.0234375,0.021484375,0.015625,16.25,-12.5625,-37.625,16.25,-12.5625,-37.625,0.12099456004294089,-0.49813713622973477,0.13382798545746064,0.8481213240198902,12.818273329201595,61.323896024051685,171.3817553913385,0.514404296875,0.44659423828125,0.2589111328125,-0.684814453125,12.65287507427256,61.40663179983495,-98.65132935102139,0.0,,,,3,0,2,3
1788940061.0805485,1027649221.0,-8.6171875,1.10546875,4.6015625,-0.029296875,0.013671875,0.021484375,13.5625,-13.25,-34.375,13.5625,-13.25,-34.375,0.12090980469875834,-0.49817166530330365,0.13411088696328058,0.8480684412325242,12.887202170266182,61.33005848592058,171.4341164371772,0.51446533203125,0.44659423828125,0.25897216796875,-0.6846923828125,12.658521282956563,61.40488091715918,-98.62097773094105,0.7830971776971453,,,,3,0,3,3
1788940061.0825016,1027649997.0,-8.66015625,1.02734375,4.6015625,-0.029296875,0.013671875,0.021484375,13.5625,-13.25,-34.375,13.5625,-13.25,-34.375,0.120905465079327,-0.498178915264359,0.13414157814751407,0.8480599471217071,12.894120046267929,61.33126365603748,171.43884961725038,0.51446533203125,0.44659423828125,0.25897216796875,-0.6846923828125,12.658521282956563,61.40488091715918,-98.62097773094105,0.7843873136130024,,,,3,0,3,3
1788940061.0785666,1027654957.0,-8.62109375,1.02734375,4.5625,-0.02734375,0.00390625,0.017578125,13.5625,-13.25,-34.375,13.5625,-13.25,-34.375,0.12088738099409689,-0.4982135685957661,0.13433128246052578,0.8480121389083829,12.935769225326577,61.337492876290064,171.4661920840167,0.51458740234375,0.44659423828125,0.25909423828125,-0.6845703125,12.662439126072625,61.41443838116781,-98.59758699370732,0.5889029152758892,,,,3,0,3,3
1788940061.0825016,1027657433.0,-8.69921875,1.06640625,4.5625,-0.02734375,0.00390625,0.017578125,13.5625,-11.375,-34.125,13.5625,-11.375,-34.125,0.12082579092454467,-0.4982904877842698,0.1342376738379492,0.8479905453209658,12.924343438034045,61.34582818552974,171.46838015094505,0.51458740234375,0.44659423828125,0.25909423828125,-0.6845703125,12.662439126072625,61.41443838116781,-98.59758699370732,0.5832096681484407,,,,3,0,3,3
1788940061.0825016,1027661639.0,-8.6953125,1.02734375,4.5625,-0.01953125,-0.00390625,0.025390625,13.5625,-11.375,-34.125,13.5625,-11.375,-34.125,0.12076286095316023,-0.49838859434681815,0.1340653425525127,0.847969117577809,12.896927077644511,61.35616663427085,171.4614878935369,0.51458740234375,0.44659423828125,0.25909423828125,-0.6845703125,12.662439126072625,61.41443838116781,-98.59758699370732,0.5730294453503414,,,,3,0,3,3
1788940061.1025708,1027669529.0,-8.73828125,1.02734375,4.48828125,-0.013671875,-0.015625,0.01953125,13.6875,-14.4375,-35.8125,13.6875,-14.4375,-35.8125,0.12075417125547072,-0.49842729370582395,0.1343729936257235,0.8478989100108304,12.961920102369849,61.364249379847124,171.50142609047677,0.51470947265625,0.446533203125,0.25909423828125,-0.6844482421875,12.672362669334234,61.39895558088722,-98.55670892521579,1.268644721699242,,,,3,0,3,3
1788940061.1034827,1027673405.0,-8.77734375,1.02734375,4.48828125,-0.013671875,-0.015625,0.01953125,13.6875,-14.4375,-35.8125,13.6875,-14.4375,-35.8125,0.12075057060912388,-0.4984508023311773,0.13451993700483728,0.847862302441376,12.992942417598936,61.3687797970967,171.52046699656944,0.51470947265625,0.446533203125,0.25909423828125,-0.6844482421875,12.672362669334234,61.39895558088722,-98.55670892521579,1.2731526507265352,,,,3,0,3,3
1788940061.1034827,1027677941.0,-8.77734375,1.02734375,4.48828125,-0.017578125,-0.025390625,0.0234375,14.125,-13.875,-35.0,14.125,-13.875,-35.0,0.12073418786648321,-0.4984640451754704,0.13468212015996534,0.8478311023174039,13.028597188067717,61.371901574819574,171.54386295285678,0.514892578125,0.44647216796875,0.25909423828125,-0.6844482421875,12.681255555920373,61.400311959182034,-98.55168299633455,0.0,,,,3,0,3,3
1788940061.1137583,1027681571.0,-8.77734375,1.02734375,4.48828125,-0.013671875,-0.03515625,0.021484375,14.125,-13.875,-35.0,14.125,-13.875,-35.0,0.12073064584989951,-0.49845953470327203,0.134813538744027,0.8478133716729033,13.056208698197745,61.37255381579054,171.56062158405,0.514892578125,0.44647216796875,0.25909423828125,-0.6844482421875,12.681255555920373,61.400311959182034,-98.55168299633455,0.0,,,,3,0,3,3
1788940061.1199312,1027689507.0,-8.69921875,1.02734375,4.5234375,-0.013671875,-0.04296875,0.0234375,13.8125,-13.375,-35.0,13.8125,-13.375,-35.0,0.120733220110502,-0.4984077582627477,0.13511023967494146,0.8477962132495235,13.116965285416267,61.36866030698147,171.5957152254384,0.5150146484375,0.44635009765625,0.25897216796875,-0.6844482421875,12.689756098995568,61.372844515187985,-98.53069163931062,0.7246685226365035,,,,3,0,3,3
1788940061.122954,1027692936.0,-8.65625,0.953125,4.5234375,-0.005859375,-0.05078125,0.01953125,13.8125,-13.375,-35.0,13.8125,-13.375,-35.0,0.12077778186375845,-0.4983791295330269,0.135229046207416,0.8477877539312568,13.135983644105066,61.36671914708676,171.6007329821786,0.5150146484375,0.44635009765625,0.25897216796875,-0.6844482421875,12.689756098995568,61.372844515187985,-98.53069163931062,0.7324147848296054,,,,3,0,3,3
1788940061.1295066,1027696796.0,-8.6171875,0.98828125,4.5234375,-0.001953125,-0.05859375,0.01953125,13.8125,-13.25,-37.0625,13.8125,-13.25,-37.0625,0.12085355478701368,-0.49837461632606905,0.135283471470466,0.8477709256892958,13.138087093162696,61.36782183754072,171.5918068401794,0.51519775390625,0.4461669921875,0.25885009765625,-0.68450927734375,12.69071498640446,61.34569405884782,-98.52633150130411,0.0,,,,3,0,3,3
1788940061.1325703,1027700902.0,-8.578125,0.953125,4.5234375,-0.001953125,-0.068359375,0.029296875,13.8125,-13.25,-37.0625,13.8125,-13.25,-37.0625,0.12096395188379254,-0.49834140193272874,0.13529301905425486,0.8477731822012082,13.126507919249573,61.365204846722186,171.56989006485347,0.51519775390625,0.4461669921875,0.25885009765625,-0.68450927734375,12.69071498640446,61.34569405884782,-98.52633150130411,0.0,,,,3,0,3,3
1788940061.138494,1027705261.0,-8.54296875,0.98828125,4.48828125,0.005859375,-0.064453125,0.03125,13.8125,-13.25,-37.0625,13.8125,-13.25,-37.0625,0.12103317492305855,-0.4983168274661316,0.13539309882307157,0.8477617700882837,13.138705967306667,61.363999221143445,171.56761697400225,0.515380859375,0.44598388671875,0.25860595703125,-0.6845703125,12.707808123473178,61.303533517814536,-98.50516307015636,0.4317908652447836,,,,3,0,3,3
1788940061.1395185,1027709238.0,-8.51171875,1.02734375,4.5234375,0.005859375,-0.064453125,0.03125,13.8125,-13.25,-37.0625,13.8125,-13.25,-37.0625,0.12109222382725819,-0.4982182895659171,0.13558023198611305,0.8477813456105135,13.169599829560667,61.35368847177344,171.57705109152718,0.515380859375,0.44598388671875,0.25860595703125,-0.6845703125,12.707808123473178,61.303533517814536,-98.50516307015636,0.4532142017691584,,,,3,0,3,3
1788940061.1491888,1027712468.0,-8.5078125,1.02734375,4.5625,0.01171875,-0.068359375,0.033203125,13.8125,-13.25,-37.0625,13.8125,-13.25,-37.0625,0.12116170101594186,-0.49805975181800427,0.1357262152817175,0.8478412117320155,13.190253118627485,61.33517359463513,171.57845831155063,0.515380859375,0.44598388671875,0.25860595703125,-0.6845703125,12.707808123473178,61.303533517814536,-98.50516307015636,0.46921856570280573,,,,3,0,3,3
1788940061.1488822,1027717104.0,-8.5078125,1.02734375,4.5625,0.013671875,-0.0703125,0.029296875,16.0625,-12.125,-41.0,16.0625,-12.125,-41.0,0.12111599087699662,-0.4979026447044605,0.1355493844028689,0.8479682998427419,13.157989844529737,61.311879689414745,171.56400668649528,0.51556396484375,0.44586181640625,0.25830078125,-0.68463134765625,12.743088942541592,61.26386235621604,-98.47624531148985,0.3358622591491412,,,,3,0,2,3
1788940061.1511564,1027720233.0,-8.47265625,1.02734375,4.640625,0.009765625,-0.06640625,0.03125,16.0625,-12.125,-41.0,16.0625,-12.125,-41.0,0.12108137457559873,-0.4977814519866267,0.1354376613016003,0.8480622422264313,13.138152209161385,61.29416640832129,171.55576510514436,0.51556396484375,0.44586181640625,0.25830078125,-0.68463134765625,12.743088942541592,61.26386235621604,-98.47624531148985,0.31495811393619555,,,,3,0,2,3
1788940061.1545515,1027724463.0,-8.43359375,1.02734375,4.71484375,0.009765625,-0.06640625,0.03125,16.0625,-12.125,-41.0,16.0625,-12.125,-41.0,0.12103808277193392,-0.4975962835483395,0.1353032545733757,0.848198532431899,13.114219859496453,61.267612451060835,171.54566786709947,0.51556396484375,0.44586181640625,0.25830078125,-0.68463134765625,12.743088942541592,61.26386235621604,-98.47624531148985,0.28974917695680386,,,,3,0,2,3
1788940061.158514,1027728446.0,-8.4296875,1.02734375,4.6796875,0.005859375,-0.05859375,0.0390625,16.5625,-14.9375,-40.5625,16.5625,-14.9375,-40.5625,0.12104473973708346,-0.4973730123889208,0.1354592587818317,0.8483036288614053,13.143993025153767,61.23965824394871,171.56022521100832,0.5157470703125,0.4456787109375,0.25799560546875,-0.6846923828125,12.768120034552771,61.21426461773942,-98.4468989374055,0.852713100847954,,,,3,0,2,3
1788940061.1625364,1027732552.0,-8.4296875,1.02734375,4.6796875,-0.00390625,-0.044921875,0.033203125,16.5625,-14.9375,-40.5625,16.5625,-14.9375,-40.5625,0.12105060322022822,-0.49717100855888924,0.13559991451079817,0.84839872871971,13.170814265260779,61.21436143197926,171.57333181400128,0.5157470703125,0.4456787109375,0.25799560546875,-0.6846923828125,12.768120034552771,61.21426461773942,-98.4468989374055,0.8607859774683475,,,,3,0,2,3
1788940061.1625364,1027736135.0,-8.43359375,1.06640625,4.640625,0.001953125,-0.037109375,0.029296875,16.5625,-14.9375,-40.5625,16.5625,-14.9375,-40.5625,0.12104845211794371,-0.49702505376610717,0.1357666143545849,0.8484578920579039,13.2043534379004,61.196629159877716,171.59198867965685,0.51593017578125,0.445556640625,0.2578125,-0.6846923828125,12.790829694401143,61.18315102173019,-98.41635850003757,0.9712878973965849,,,,3,0,2,3
1788940061.1730974,1027740241.0,-8.4296875,1.02734375,4.6796875,-0.0078125,-0.025390625,0.033203125,16.5625,-14.9375,-40.5625,16.5625,-14.9375,-40.5625,0.12104980126185552,-0.49685803684080604,0.13590260819007968,0.848533745898358,13.230955298611132,61.17585538500478,171.6058740842094,0.51593017578125,0.445556640625,0.2578125,-0.6846923828125,12.790829694401143,61.18315102173019,-98.41635850003757,0.9789578515559322,,,,3,0,2,3
1788940061.1743608,1027744571.0,-8.46875,1.06640625,4.640625,-0.0078125,-0.025390625,0.033203125,16.5625,-14.9375,-40.5625,16.5625,-14.9375,-40.5625,0.12103405120732422,-0.49671688855852897,0.13610335578800373,0.8485864526448209,13.273109240639315,61.15888192592867,171.63143700185577,0.51593017578125,0.445556640625,0.2578125,-0.6846923828125,12.790829694401143,61.18315102173019,-98.41635850003757,0.9909490562639146,,,,3,0,2,3
1788940061.179197,1027747577.0,-8.5078125,1.02734375,4.71484375,-0.00390625,-0.013671875,0.03125,14.0625,-14.4375,-35.4375,14.0625,-14.4375,-35.4375,0.12103924121267404,-0.4966611401109447,0.13625818529356515,0.8485934956920547,13.303946574674734,61.153095052195106,171.64835925008296,0.51611328125,0.44549560546875,0.25762939453125,-0.6846923828125,12.823653102955904,61.161979021516984,-98.38643638431644,0.6806799833464198,,,,3,0,2,3
1788940061.179197,1027751683.0,-8.51171875,1.10546875,4.75390625,-0.00390625,-0.00390625,0.02734375,14.0625,-14.4375,-35.4375,14.0625,-14.4375,-35.4375,0.12102815056097885,-0.49659086096260086,0.13647037047193142,0.8486021102751664,13.348412724852874,61.145687678408606,171.67533078292783,0.51611328125,0.44549560546875,0.25762939453125,-0.6846923828125,12.823653102955904,61.161979021516984,-98.38643638431644,0.6996349453175293,,,,3,0,2,3
1788940061.192221,1027759572.0,-8.54296875,1.06640625,4.6796875,-0.015625,0.0078125,0.029296875,13.875,-11.8125,-34.125,13.875,-11.8125,-34.125,0.1209479937551692,-0.49638517109955327,0.13635196727784007,0.8487529002828382,13.331940681635395,61.116029685446264,171.67431284195132,0.5162353515625,0.44549560546875,0.257568359375,-0.6845703125,12.851548960036432,61.14904766720058,-98.33811267064013,1.193354621044393,,,,3,0,3,3
1788940061.194174,1027759949.0,-8.54296875,1.10546875,4.640625,-0.015625,0.0078125,0.029296875,13.875,-11.8125,-34.125,13.875,-11.8125,-34.125,0.12093993738599798,-0.4963736002393949,0.1363538636766714,0.8487605106217513,13.333197778053822,61.11438989536463,171.67601392241218,0.5162353515625,0.44549560546875,0.257568359375,-0.6845703125,12.851548960036432,61.14904766720058,-98.33811267064013,1.1934570146490335,,,,3,0,3,3
1788940061.1960423,1027764332.0,-8.54296875,1.06640625,4.6796875,-0.013671875,0.001953125,0.02734375,13.875,-11.8125,-34.125,13.875,-11.8125,-34.125,0.1209055813192553,-0.49624779086208565,0.13629047056075852,0.8488491492041914,13.323242420892926,61.096569223194344,171.6735078565394,0.516357421875,0.445556640625,0.257568359375,-0.68450927734375,12.877956185621544,61.15998065987118,-98.31722370769067,0.3788514407948352,,,,3,0,3,3
1788940061.1999774,1027767385.0,-8.578125,1.06640625,4.6015625,-0.013671875,0.001953125,0.02734375,14.3125,-12.5625,-35.5625,14.3125,-12.5625,-35.5625,0.12092941563052229,-0.4962782240665448,0.13640587822572028,0.8488094233325211,13.344388569884277,61.102099171617,171.68306421038378,0.516357421875,0.445556640625,0.257568359375,-0.68450927734375,12.877956185621544,61.15998065987118,-98.31722370769067,0.39655378030469834,,,,3,0,3,3
1788940061.2048965,1027771491.0,-8.578125,1.10546875,4.6015625,-0.0234375,0.001953125,0.02734375,14.3125,-12.5625,-35.5625,14.3125,-12.5625,-35.5625,0.12086569939383401,-0.49628632849798143,0.13658845365070404,0.8487843997066288,13.38959620963537,61.10395736813013,171.7182374787108,0.516357421875,0.445556640625,0.257568359375,-0.68450927734375,12.877956185621544,61.15998065987118,-98.31722370769067,0.42285254839151465,,,,3,0,3,3
1788940061.2073472,1027775850.0,-8.6171875,1.10546875,4.6015625,-0.0234375,-0.005859375,0.01953125,14.3125,-12.5625,-35.5625,14.3125,-12.5625,-35.5625,0.1208220476509994,-0.49633069158887727,0.13674145988537625,0.8487400370765731,13.426640752851416,61.110636041159204,171.74629510095906,0.51654052734375,0.44549560546875,0.257568359375,-0.68438720703125,12.893944335931952,61.14834258555889,-98.2752807202732,0.7940861634558951,,,,3,0,3,3
1788940061.2140672,1027783057.0,-8.65625,1.02734375,4.5234375,-0.013671875,-0.009765625,0.01953125,14.1875,-12.875,-34.5,14.1875,-12.875,-34.5,0.12083803739203147,-0.4964412927861284,0.13694944960810584,0.848639534660103,13.468482692920496,61.12755170829679,171.7698899371647,0.51654052734375,0.44549560546875,0.257568359375,-0.68438720703125,12.893944335931952,61.14834258555889,-98.2752807202732,0.8112120314595644,,,,3,0,3,3
1788940061.2120707,1027786916.0,-8.65625,0.953125,4.5234375,-0.017578125,-0.015625,0.015625,13.75,-13.0,-35.3125,13.75,-13.0,-35.3125,0.120890992484754,-0.4965182866066953,0.13696963855663316,0.8485836889281267,13.466986966834364,61.13877987788499,171.76271682163014,0.51666259765625,0.4454345703125,0.257568359375,-0.684326171875,12.899989041513244,61.139434434834406,-98.25333961238937,0.9084545883063727,,,,3,0,3,3
1788940061.224874,1027791322.0,-8.66015625,0.9140625,4.48828125,-0.015625,-0.02734375,0.01953125,13.75,-13.0,-35.3125,13.75,-13.0,-35.3125,0.12094729766037547,-0.4965906609306571,0.13696809057180992,0.8485335637617514,13.460571444022161,61.14923890138424,171.7521523770147,0.51666259765625,0.4454345703125,0.257568359375,-0.684326171875,12.899989041513244,61.139434434834406,-98.25333961238937,0.9091571310616092,,,,3,0,3,3
1788940061.224874,1027798482.0,-8.62109375,0.9140625,4.48828125,-0.01953125,-0.037109375,0.025390625,13.875,-12.1875,-36.1875,13.875,-12.1875,-36.1875,0.12094124581508617,-0.4966356182619533,0.13664887224331745,0.8485595815550561,13.395906482403712,61.152001777474986,171.71533272560987,0.51678466796875,0.4453125,0.25750732421875,-0.684326171875,12.900209842833268,61.1195847819009,-98.24111535421781,0.9878859037603318,,,,3,0,3,3
1788940061.222921,1027802988.0,-8.578125,0.875,4.5234375,-0.013671875,-0.044921875,0.021484375,13.875,-12.1875,-36.1875,13.875,-12.1875,-36.1875,0.12096758927198323,-0.4966180994480665,0.13643390559408988,0.8486006687781115,13.348342574081508,61.147996498402236,171.68363949176126,0.51678466796875,0.4453125,0.25750732421875,-0.684326171875,12.900209842833268,61.1195847819009,-98.24111535421781,0.9739712161831573,,,,3,0,3,3
1788940061.224874,1027806847.0,-8.54296875,0.875,4.5625,-0.001953125,-0.0546875,0.021484375,16.25,-14.375,-40.25,16.25,-14.375,-40.25,0.12108758827756635,-0.49658236424859603,0.13633150513713901,0.8486209237282801,13.312660001253366,61.14412733949093,171.64626732209896,0.5169677734375,0.4451904296875,0.25738525390625,-0.684326171875,12.914694133520491,61.09598848623618,-98.21919471900495,0.8441552829739712,,,,3,0,2,3
1788940061.2428234,1027810854.0,-8.54296875,0.875,4.5625,-0.001953125,-0.05078125,0.025390625,16.25,-14.375,-40.25,16.25,-14.375,-40.25,0.12120532034348826,-0.49655251690053076,0.13623324910458062,0.8486373607840924,13.278156615285202,61.141034617952414,171.6099525783087,0.5169677734375,0.4451904296875,0.25738525390625,-0.684326171875,12.914694133520491,61.09598848623618,-98.21919471900495,0.839381177106925,,,,3,0,2,3
1788940061.2368464,1027814107.0,-8.47265625,0.875,4.5234375,-0.001953125,-0.05078125,0.025390625,16.25,-14.375,-40.25,16.25,-14.375,-40.25,0.12130212805519529,-0.4965313483666197,0.13615959676767456,0.8486477349445833,13.251287131822096,61.13900259722069,171.5810104995835,0.5169677734375,0.4451904296875,0.25738525390625,-0.684326171875,12.914694133520491,61.09598848623618,-98.21919471900495,0.8362590200140582,,,,3,0,2,3
1788940061.2480521,1027818089.0,-8.5078125,0.875,4.5625,0.0078125,-0.056640625,0.02734375,16.9375,-14.375,-40.125,16.9375,-14.375,-40.125,0.1214447389363831,-0.49647879740291656,0.13610009033627243,0.8486676290070725,13.22163840367772,61.133654537742544,171.54401881285492,0.51715087890625,0.44500732421875,0.25714111328125,-0.68438720703125,12.931315511304776,61.0539886359442,-98.19875071758105,0.9525480054693632,,,,3,0,2,3
1788940061.2525346,1027822572.0,-8.46875,0.9140625,4.5625,0.005859375,-0.056640625,0.02734375,16.9375,-14.375,-40.125,16.9375,-14.375,-40.125,0.12162648651351929,-0.49639458926873775,0.13606792036761473,0.8486960177648591,13.192732064058909,61.12498019654272,171.50194220679376,0.51715087890625,0.44500732421875,0.25714111328125,-0.68438720703125,12.931315511304776,61.0539886359442,-98.19875071758105,0.9546079822438357,,,,3,0,2,3
1788940061.2632575,1027830285.0,-8.47265625,0.953125,4.640625,0.0234375,-0.0546875,0.033203125,15.4375,-12.0625,-40.8125,15.4375,-12.0625,-40.8125,0.1215814459552336,-0.49616094911016956,0.13582451843221272,0.8488780623683168,13.146353602828807,61.09090168881071,171.4784563420254,0.51727294921875,0.44488525390625,0.25689697265625,-0.6844482421875,12.951792493966797,61.01818896191894,-98.18032317245759,1.0923890649118202,,,,3,0,2,3
1788940061.264165,1027834414.0,-8.390625,1.02734375,4.6796875,0.0234375,-0.0546875,0.033203125,15.4375,-12.0625,-40.8125,15.4375,-12.0625,-40.8125,0.12154287312125525,-0.49600874981940346,0.13571214893633174,0.8489904962525233,13.126772374024048,61.06902373155569,171.47065555922316,0.51727294921875,0.44488525390625,0.25689697265625,-0.6844482421875,12.951792493966797,61.01818896191894,-98.18032317245759,1.085036370119667,,,,3,0,2,3
1788940061.27012,1027838197.0,-8.46875,1.06640625,4.6796875,0.03125,-0.041015625,0.041015625,16.9375,-11.5,-37.0625,16.9375,-11.5,-37.0625,0.12150318379895104,-0.495874057544163,0.13564242414270422,0.8490859957354715,13.11622297051517,61.04987670065517,171.46848328290125,0.5174560546875,0.44482421875,0.256591796875,-0.68450927734375,12.99659249344565,60.988521832136996,-98.15285170031837,0.5858489376201887,,,,3,0,2,3
1788940061.2741218,1027841727.0,-8.47265625,1.06640625,4.71484375,0.025390625,-0.03515625,0.037109375,16.9375,-11.5,-37.0625,16.9375,-11.5,-37.0625,0.12146749507742129,-0.4957520327928534,0.13557360287409506,0.8491733438027288,13.10548074864385,61.032479733948236,171.4657867366079,0.5174560546875,0.44482421875,0.256591796875,-0.68450927734375,12.99659249344565,60.988521832136996,-98.15285170031837,0.5771384935518628,,,,3,0,2,3
1788940061.282645,1027846086.0,-8.4296875,1.10546875,4.75390625,0.009765625,-0.029296875,0.041015625,16.9375,-11.5,-37.0625,16.9375,-11.5,-37.0625,0.12138822437059964,-0.495592546221617,0.13549514894761097,0.8492902870782122,13.097679765228033,61.009360881636866,171.47028306595496,0.517578125,0.44482421875,0.25634765625,-0.68450927734375,13.040880389016772,60.96607393128468,-98.11715185838023,0.5436352737690482,,,,3,0,2,3
1788940061.282645,1027849416.0,-8.43359375,1.14453125,4.75390625,-0.001953125,-0.021484375,0.044921875,16.9375,-11.5,-37.0625,16.9375,-11.5,-37.0625,0.12130073343283866,-0.49547821142482057,0.13543332471900202,0.8493793549571791,13.094578038199742,60.99226514055583,171.47905971425854,0.517578125,0.44482421875,0.25634765625,-0.68450927734375,13.040880389016772,60.96607393128468,-98.11715185838023,0.5335919233391319,,,,3,0,2,3
1788940061.284645,1027853569.0,-8.46875,1.14453125,4.75390625,-0.001953125,-0.021484375,0.044921875,16.9375,-11.5,-37.0625,16.9375,-11.5,-37.0625,0.12119014855008102,-0.49533995910186734,0.1353495937133682,0.8494891172304656,13.089551596220142,60.97143368844128,171.48956181475586,0.517578125,0.44482421875,0.25634765625,-0.68450927734375,13.040880389016772,60.96607393128468,-98.11715185838023,0.5213374041406877,,,,3,0,2,3
1788940061.2906442,1027857429.0,-8.5078125,1.21875,4.75390625,0.0,-0.017578125,0.04296875,14.5625,-11.8125,-33.6875,14.5625,-11.8125,-33.6875,0.12108183351626953,-0.49519321528248345,0.13551364490920273,0.8495639594368143,13.134942155721381,60.951982464547136,171.52924196577564,0.51776123046875,0.44482421875,0.25616455078125,-0.6844482421875,13.087013398655001,60.94836665278189,-98.0698790374012,0.3434650272171212,,,,3,0,3,3
1788940061.294644,1027861635.0,-8.54296875,1.21875,4.71484375,0.0,-0.013671875,0.048828125,14.5625,-11.8125,-33.6875,14.5625,-11.8125,-33.6875,0.1209430841268346,-0.49506137068916645,0.135730012035555,0.8496260197793386,13.194694297533188,60.934541333094685,171.58151726817974,0.51776123046875,0.44482421875,0.25616455078125,-0.6844482421875,13.087013398655001,60.94836665278189,-98.0698790374012,0.36217375202351587,,,,3,0,3,3
1788940061.2938726,1027869924.0,-8.6171875,1.296875,4.75390625,-0.01171875,-0.015625,0.0546875,13.75,-13.0,-35.3125,13.75,-13.0,-35.3125,0.12066090304047303,-0.4948633400224585,0.1361821429024233,0.8497091532599718,13.319044206206684,60.90840304096402,171.690089336379,0.5179443359375,0.44482421875,0.25604248046875,-0.68438720703125,13.125171129543642,60.93811013628254,-98.03087332759756,0.0,,,,3,0,3,3
1788940061.29584,1027873600.0,-8.65625,1.296875,4.75390625,-0.01171875,-0.015625,0.0546875,13.75,-13.0,-35.3125,13.75,-13.0,-35.3125,0.12053663774088402,-0.49478316505455455,0.13638544783290243,0.8497408711837621,13.374657813751954,60.89783458994423,171.73844263779893,0.5179443359375,0.44482421875,0.25604248046875,-0.68438720703125,13.125171129543642,60.93811013628254,-98.03087332759756,0.0,,,,3,0,3,3
1788940061.2978077,1027876960.0,-8.66015625,1.375,4.75390625,-0.015625,-0.01171875,0.0546875,13.125,-12.875,-35.0,13.125,-12.875,-35.0,0.12040671133181523,-0.49471726496590757,0.1365640164989681,0.8497689809639903,13.425960413727674,60.88880959063857,171.78515171516918,0.5181884765625,0.44476318359375,0.25592041015625,-0.68426513671875,13.162937908329805,60.915280616323805,-97.9715773573987,0.18006228120449813,,,,3,0,3,3
1788940061.3064132,1027881566.0,-8.6953125,1.375,4.71484375,-0.02734375,-0.01171875,0.052734375,13.125,-12.875,-35.0,13.125,-12.875,-35.0,0.12021871959685407,-0.494656990933111,0.13678686618237407,0.8497948423116596,13.493175148175515,60.88002311238535,171.84895928964835,0.5181884765625,0.44476318359375,0.25592041015625,-0.68426513671875,13.162937908329805,60.915280616323805,-97.9715773573987,0.2256739737457884,,,,3,0,3,3
1788940061.3173878,1027888725.0,-8.734375,1.2578125,4.6796875,-0.029296875,-0.01171875,0.041015625,13.8125,-11.875,-34.5,13.8125,-11.875,-34.5,0.11984816864840721,-0.49465957182705655,0.13703040683146472,0.8498064438889006,13.586622071158033,60.87682869096635,171.9530730393957,0.5184326171875,0.44476318359375,0.255859375,-0.68408203125,13.206508183702276,60.90335448740729,-97.90257788779185,0.6698402411988338,,,,3,0,3,3
1788940061.3195827,1027893032.0,-8.734375,1.21875,4.6796875,-0.041015625,-0.013671875,0.05078125,13.8125,-11.875,-34.5,13.8125,-11.875,-34.5,0.11959480901995835,-0.4946913152193904,0.13713560433400135,0.8498066899748071,13.638237518828483,60.87799668763105,172.01737444552012,0.5184326171875,0.44476318359375,0.255859375,-0.68408203125,13.206508183702276,60.90335448740729,-97.90257788779185,0.673484377117462,,,,3,0,3,3
1788940061.3286984,1027896791.0,-8.73828125,1.1796875,4.6796875,-0.0390625,-0.021484375,0.05078125,13.375,-12.8125,-37.4375,13.375,-12.8125,-37.4375,0.11938046663949982,-0.4947505999443093,0.13702654731272268,0.8498199064338487,13.641685640559697,60.881412490975904,172.0485544547232,0.5186767578125,0.44464111328125,0.25579833984375,-0.6839599609375,13.226095871156579,60.878155971812035,-97.85109174825833,1.0720737888948393,,,,3,0,3,3
1788940061.3286984,1027900697.0,-8.69921875,1.14453125,4.6796875,-0.037109375,-0.025390625,0.046875,13.375,-12.8125,-37.4375,13.375,-12.8125,-37.4375,0.11922282208640343,-0.494771757343094,0.1368302619743929,0.8498613453013375,13.620260254388901,60.87987706491251,172.05721618761527,0.5186767578125,0.44464111328125,0.25579833984375,-0.6839599609375,13.226095871156579,60.878155971812035,-97.85109174825833,1.0590186074206334,,,,3,0,3,3
1788940061.3267453,1027904927.0,-8.65625,1.14453125,4.640625,-0.037109375,-0.025390625,0.046875,13.375,-12.8125,-37.4375,13.375,-12.8125,-37.4375,0.11903824086614638,-0.49483279436040783,0.1366632540567189,0.8498785547521437,13.608369258172571,60.88346875705007,172.0754647578518,0.5186767578125,0.44464111328125,0.25579833984375,-0.6839599609375,13.226095871156579,60.878155971812035,-97.85109174825833,1.0479410540517953,,,,3,0,3,3
1788940061.3407733,1027908910.0,-8.66015625,1.10546875,4.640625,-0.041015625,-0.03125,0.048828125,16.5625,-13.875,-40.125,16.5625,-13.875,-40.125,0.11896592820786446,-0.49490621712732563,0.13660394440133503,0.8498554621512757,13.605428586459714,60.89148465650332,172.08413595169597,0.51898193359375,0.44451904296875,0.2557373046875,-0.683837890625,13.251856820682747,60.85664995453815,-97.79834016608827,0.9859930594010359,,,,3,0,2,3
1788940061.3443656,1027912039.0,-8.66015625,1.10546875,4.640625,-0.041015625,-0.0390625,0.044921875,16.5625,-13.875,-40.125,16.5625,-13.875,-40.125,0.11891688129817546,-0.49495406188967195,0.13655604537998842,0.8498421608930737,13.601846331568716,60.89659237861875,172.0890666225876,0.51898193359375,0.44451904296875,0.2557373046875,-0.683837890625,13.251856820682747,60.85664995453815,-97.79834016608827,0.9828339922097653,,,,3,0,2,3
1788940061.3434334,1027919529.0,-8.66015625,1.06640625,4.6796875,-0.03515625,-0.041015625,0.04296875,16.0625,-11.6875,-41.0,16.0625,-11.6875,-41.0,0.11870207315307624,-0.4948355371110005,0.13614507962584568,0.8500071331082473,13.541914989015563,60.87369839580341,172.08132920781696,0.519287109375,0.4443359375,0.25567626953125,-0.68377685546875,13.263810945791823,60.83172123742542,-97.76362102123683,0.6446665164759814,,,,3,0,2,3
1788940061.34543,1027920005.0,-8.58203125,1.02734375,4.71484375,-0.03515625,-0.041015625,0.04296875,16.0625,-11.6875,-41.0,16.0625,-11.6875,-41.0,0.11868930604040827,-0.4948260407896897,0.1361195002083417,0.8500185407690104,13.538096023259993,60.872003046793324,172.0806942170889,0.519287109375,0.4443359375,0.25567626953125,-0.68377685546875,13.263810945791823,60.83172123742542,-97.76362102123683,0.6422738150977055,,,,3,0,2,3
1788940061.3582654,1027924288.0,-8.58203125,0.98828125,4.71484375,-0.03515625,-0.048828125,0.03515625,16.0625,-11.6875,-41.0,16.0625,-11.6875,-41.0,0.11859807162257971,-0.4947313111118377,0.13587763255651392,0.8501251061954378,13.49848793855404,60.85578594168444,172.06867096348128,0.51959228515625,0.44415283203125,0.25555419921875,-0.6837158203125,13.283577745093346,60.79935867629755,-97.7208565335365,0.5363078984724342,,,,3,0,2,3
1788940061.3637035,1027929771.0,-8.58203125,1.02734375,4.75390625,-0.03125,-0.048828125,0.03125,16.5625,-13.4375,-40.0625,16.5625,-13.4375,-40.0625,0.11855793836560158,-0.49453774128321537,0.13562276533702045,0.8502840132681159,13.44936540332636,60.82717665043484,172.04327772201856,0.51959228515625,0.44415283203125,0.25555419921875,-0.6837158203125,13.283577745093346,60.79935867629755,-97.7208565335365,0.5101099983388137,,,,3,0,2,3
1788940061.363531,1027934454.0,-8.54296875,0.98828125,4.71484375,-0.029296875,-0.04296875,0.029296875,16.5625,-13.4375,-40.0625,16.5625,-13.4375,-40.0625,0.11854565514976621,-0.49441086573152676,0.1353902684269773,0.8503965537953373,13.402200032904076,60.80803078697535,172.01602849026617,0.51983642578125,0.4439697265625,0.25543212890625,-0.6837158203125,13.293532741460742,60.76971681966086,-97.69791076203786,0.0,,,,3,0,2,3
1788940061.3615346,1027940036.0,-8.58203125,1.02734375,4.71484375,-0.025390625,-0.04296875,0.01953125,17.625,-13.0,-37.125,17.625,-13.0,-37.125,0.11871943985097315,-0.4942260546574379,0.1354269746105431,0.8504738891036276,13.38770635212607,60.78664497196288,171.98254562781185,0.51983642578125,0.4439697265625,0.25543212890625,-0.6837158203125,13.293532741460742,60.76971681966086,-97.69791076203786,0.0,,,,3,0,2,3
1788940061.3635094,1027943689.0,-8.58203125,1.02734375,4.75390625,-0.025390625,-0.04296875,0.01953125,17.625,-13.0,-37.125,17.625,-13.0,-37.125,0.11879682214486456,-0.49406842581759153,0.13542202923784946,0.8505554536040031,13.376275786992716,60.766959641456616,171.96397192910888,0.51983642578125,0.4439697265625,0.25543212890625,-0.6837158203125,13.293532741460742,60.76971681966086,-97.69791076203786,0.0,,,,3,0,2,3
1788940061.3815148,1027947272.0,-8.578125,1.06640625,4.75390625,-0.029296875,-0.029296875,0.021484375,12.75,-11.9375,-35.0,12.75,-11.9375,-35.0,0.11877270493947908,-0.4939543273120676,0.13527425166966078,0.850648601906954,13.347996676154938,60.75010393412727,171.9495110971594,0.52001953125,0.44378662109375,0.25537109375,-0.6837158203125,13.289433201262426,60.743876467634365,-97.68441758107862,0.0,,,,3,0,3,3
1788940061.385033,1027951379.0,-8.6171875,1.10546875,4.75390625,-0.03125,-0.02734375,0.005859375,12.75,-11.9375,-35.0,12.75,-11.9375,-35.0,0.11874221064321358,-0.4938177523499479,0.1351044407299609,0.8507591345208424,13.315810855303665,60.72996885039538,171.93340343680265,0.52001953125,0.44378662109375,0.25537109375,-0.6837158203125,13.289433201262426,60.743876467634365,-97.68441758107862,0.0,,,,3,0,3,3
1788940061.3920965,1027959768.0,-8.578125,1.10546875,4.79296875,-0.033203125,-0.013671875,-0.013671875,13.5,-12.875,-34.625,13.5,-12.875,-34.625,0.11882582711204798,-0.49364750681919306,0.13532555974136265,0.8508111157613182,13.349649425564596,60.71084824203605,171.94032620774726,0.5201416015625,0.443603515625,0.25537109375,-0.6837158203125,13.271316853336632,60.72183891267022,-97.6803377569683,0.6425312626903517,,,,3,0,3,3
1788940061.3940713,1027963344.0,-8.578125,1.10546875,4.71484375,-0.033203125,-0.013671875,-0.013671875,13.5,-12.875,-34.625,13.5,-12.875,-34.625,0.11885936755164411,-0.49362083112606764,0.13543130265313355,0.8508050823104601,13.367039365399837,60.70884166512271,171.9457453845709,0.5201416015625,0.443603515625,0.25537109375,-0.6837158203125,13.271316853336632,60.72183891267022,-97.6803377569683,0.651209207873933,,,,3,0,3,3
1788940061.3987699,1027966804.0,-8.578125,1.14453125,4.6796875,-0.0390625,-0.005859375,-0.009765625,13.875,-10.875,-34.0625,13.875,-10.875,-34.0625,0.11879426252188449,-0.4936191595135866,0.13520647051784346,0.8508509028514276,13.328849623283176,60.705485388945746,171.93210209450808,0.52020263671875,0.4434814453125,0.2554931640625,-0.6837158203125,13.241508351997258,60.720814156266876,-97.69422878536527,0.43324564379967473,,,,3,0,3,3
1788940061.402705,1027971210.0,-8.6171875,1.1796875,4.75390625,-0.046875,-0.005859375,-0.013671875,13.875,-10.875,-34.0625,13.875,-10.875,-34.0625,0.11869818269732353,-0.4935675645728286,0.134939381680415,0.8509366391792674,13.285270823111546,60.69464947122358,171.91894164796557,0.52020263671875,0.4434814453125,0.2554931640625,-0.6837158203125,13.241508351997258,60.720814156266876,-97.69422878536527,0.4007351445592359,,,,3,0,3,3
1788940061.4093962,1027978569.0,-8.58203125,1.1796875,4.6796875,-0.048828125,-0.005859375,-0.009765625,13.5625,-12.3125,-34.25,13.5625,-12.3125,-34.25,0.11862277535637206,-0.49356645823352796,0.13512285669721968,0.8509186812331397,13.331409138049994,60.69506714503454,171.9558899383791,0.520263671875,0.44329833984375,0.25567626953125,-0.6837158203125,13.1937174953647,60.7174555586197,-97.71572697852626,0.5174479816165234,,,,3,0,3,3
1788940061.4133546,1027982875.0,-8.578125,1.14453125,4.640625,-0.05078125,-0.017578125,-0.0078125,13.5625,-12.3125,-34.25,13.5625,-12.3125,-34.25,0.11859389124987754,-0.49358032738311464,0.13521056133861656,0.8509007306854813,13.35275112151122,60.69727726541073,171.97232765980237,0.520263671875,0.44329833984375,0.25567626953125,-0.6837158203125,13.1937174953647,60.7174555586197,-97.71572697852626,0.5242830568724133,,,,3,0,3,3
1788940061.4185627,1027986635.0,-8.5390625,1.14453125,4.640625,-0.052734375,-0.01953125,-0.001953125,14.0625,-12.0,-35.1875,14.0625,-12.0,-35.1875,0.11845456616894606,-0.4936046642032344,0.13524862544292926,0.8508999709403786,13.3769719696367,60.69868301092032,172.00524837513984,0.5203857421875,0.443115234375,0.25579833984375,-0.6837158203125,13.159959718270867,60.710320576618365,-97.7278202897896,0.0,,,,3,0,3,3
1788940061.4185627,1027990541.0,-8.46875,1.10546875,4.6796875,-0.05859375,-0.025390625,0.005859375,14.0625,-12.0,-35.1875,14.0625,-12.0,-35.1875,0.11839252111434144,-0.49345473784650423,0.13511116388504385,0.8510173946721987,13.354946888532476,60.67661181156452,171.99913857926308,0.5203857421875,0.443115234375,0.25579833984375,-0.6837158203125,13.159959718270867,60.710320576618365,-97.7278202897896,0.0,,,,3,0,3,3
1788940061.4230213,1027994771.0,-8.47265625,1.10546875,4.71484375,-0.05859375,-0.025390625,0.005859375,14.0625,-12.0,-35.1875,14.0625,-12.0,-35.1875,0.11833078661356104,-0.49328994242685864,0.13497116919558147,0.8511437253048983,13.33226546893264,60.652559430944116,171.99246453010096,0.5203857421875,0.443115234375,0.25579833984375,-0.6837158203125,13.159959718270867,60.710320576618365,-97.7278202897896,0.0,,,,3,0,3,3
1788940061.4260106,1027998754.0,-8.47265625,1.06640625,4.71484375,-0.0625,-0.025390625,0.015625,13.25,-11.125,-35.8125,13.25,-11.125,-35.8125,0.11823245148898578,-0.493229045056409,0.13469794794665446,0.8512359598528528,13.287663847147023,60.64042328372961,171.97893337599143,0.52056884765625,0.44287109375,0.25592041015625,-0.68365478515625,13.125822457856499,60.69075201250767,-97.719746502659,0.7250950465394467,,,,3,0,3,3
1788940061.4304378,1028002083.0,-8.39453125,1.06640625,4.6796875,-0.05859375,-0.025390625,0.01953125,13.25,-11.125,-35.8125,13.25,-11.125,-35.8125,0.11814484016351834,-0.4931725571006644,0.13448119744718567,0.8513151197991844,13.253348180366007,60.62956774739815,171.97002411036556,0.52056884765625,0.44287109375,0.25592041015625,-0.68365478515625,13.125822457856499,60.69075201250767,-97.719746502659,0.7094539290707842,,,,3,0,3,3
1788940061.4304378,1028006443.0,-8.35546875,1.02734375,4.6796875,-0.05859375,-0.02734375,0.03515625,13.25,-11.125,-35.8125,13.25,-11.125,-35.8125,0.11801471328598305,-0.49308821387013946,0.13421377829690795,0.851424220060512,13.213477290519272,60.61390208452841,171.96326500227082,0.52081298828125,0.44268798828125,0.2559814453125,-0.68359375,13.115826723275058,60.67719368035841,-97.70277433882553,0.0,,,,3,0,3,3
1788940061.4304378,1028009772.0,-8.3515625,1.02734375,4.71484375,-0.05859375,-0.021484375,0.044921875,13.25,-11.125,-35.8125,13.25,-11.125,-35.8125,0.11790126441587204,-0.4930201338707801,0.13402620866239678,0.851508904732511,13.188033154191553,60.60139783337978,171.96286137272435,0.52081298828125,0.44268798828125,0.2559814453125,-0.68359375,13.115826723275058,60.67719368035841,-97.70277433882553,0.0,,,,3,0,3,3
1788940061.4453926,1028013925.0,-8.3515625,1.02734375,4.71484375,-0.05859375,-0.021484375,0.044921875,13.25,-11.125,-35.8125,13.25,-11.125,-35.8125,0.11775948571197925,-0.4929351772916491,0.133792156853665,0.8516145097858214,13.156324187481106,60.58579644469916,171.96241695197165,0.52081298828125,0.44268798828125,0.2559814453125,-0.68359375,13.115826723275058,60.67719368035841,-97.70277433882553,0.0,,,,3,0,3,3
1788940061.4483232,1028017885.0,-8.4296875,1.10546875,4.71484375,-0.048828125,-0.013671875,0.046875,17.0625,-12.1875,-40.875,17.0625,-12.1875,-40.875,0.11760689712870241,-0.49287498878618624,0.13358385467482928,0.8517031272380006,13.131307754124698,60.573550722265196,171.96755668654032,0.5211181640625,0.4425048828125,0.25604248046875,-0.68341064453125,13.119095603252036,60.65467563570251,-97.64784145876534,0.87583799428229,,,,3,0,2,3
1788940061.4483232,1028022191.0,-8.47265625,1.06640625,4.75390625,-0.04296875,-0.009765625,0.0546875,17.0625,-12.1875,-40.875,17.0625,-12.1875,-40.875,0.11744729638969624,-0.4928153134205392,0.13337350484284952,0.851792643567025,13.106702739819028,60.561253035745686,171.9738773638019,0.5211181640625,0.4425048828125,0.25604248046875,-0.68341064453125,13.119095603252036,60.65467563570251,-97.64784145876534,0.8649629431049085,,,,3,0,2,3
1788940061.461139,1028029350.0,-8.5390625,1.10546875,4.71484375,-0.044921875,0.0,0.0546875,16.5625,-13.4375,-40.0625,16.5625,-13.4375,-40.0625,0.11712709173652674,-0.4925745304225086,0.13337580270403018,0.851975628532556,13.142373940467198,60.52457575790381,172.03484469300648,0.52142333984375,0.44244384765625,0.2559814453125,-0.68328857421875,13.154673305599225,60.643124714159626,-97.59612974161087,0.0,,,,3,0,2,3
1788940061.461139,1028033257.0,-8.58203125,1.14453125,4.75390625,-0.044921875,0.015625,0.04296875,16.5625,-13.4375,-40.0625,16.5625,-13.4375,-40.0625,0.11693481383405643,-0.4924891108657763,0.13344888383333312,0.8520399758203069,13.178748074151363,60.511028233333334,172.08071370131165,0.52142333984375,0.44244384765625,0.2559814453125,-0.68328857421875,13.154673305599225,60.643124714159626,-97.59612974161087,0.0,,,,3,0,2,3
1788940061.458911,1028038093.0,-8.6171875,1.10546875,4.75390625,-0.044921875,0.029296875,0.03125,15.9375,-10.0625,-37.0625,15.9375,-10.0625,-37.0625,0.11677840923348036,-0.4925538955873991,0.13317236085870154,0.8520672422889494,13.141382536315188,60.514628611771585,172.08042074554436,0.52166748046875,0.4423828125,0.256103515625,-0.68304443359375,13.167709609565504,60.637624610869636,-97.53329725857378,0.898008539459442,,,,3,0,2,3
1788940061.461139,1028041322.0,-8.65625,1.10546875,4.71484375,-0.046875,0.04296875,0.025390625,15.9375,-10.0625,-37.0625,15.9375,-10.0625,-37.0625,0.11667590523326939,-0.4926314234154348,0.13298008216743828,0.8520664947927603,13.114940212358027,60.521521976833746,172.07943667176562,0.52166748046875,0.4423828125,0.256103515625,-0.68304443359375,13.167709609565504,60.637624610869636,-97.53329725857378,0.8880793315892425,,,,3,0,2,3
1788940061.478005,1028049411.0,-8.66015625,1.10546875,4.6796875,-0.04296875,0.0546875,0.0078125,12.0625,-14.9375,-36.125,12.0625,-14.9375,-36.125,0.1166219945604753,-0.4928834033141527,0.13323721917874976,0.8518879647862792,13.175396701747301,60.556360382909546,172.1242764287276,0.52178955078125,0.44244384765625,0.25628662109375,-0.682861328125,13.177339570732988,60.65807559870946,-97.5004021086481,0.6958107471247447,,,,3,0,2,3
1788940061.479958,1028052988.0,-8.73828125,1.10546875,4.6796875,-0.04296875,0.0546875,0.0078125,12.0625,-14.9375,-36.125,12.0625,-14.9375,-36.125,0.11659865882950865,-0.49300188605759154,0.13334669267941207,0.8518054664383646,13.201312922493962,60.57266328269231,172.14364851370547,0.52178955078125,0.44244384765625,0.25628662109375,-0.682861328125,13.177339570732988,60.65807559870946,-97.5004021086481,0.6987564963839593,,,,3,0,2,3
1788940061.489249,1028057424.0,-8.734375,1.14453125,4.6796875,-0.04296875,0.056640625,0.00390625,12.9375,-12.125,-36.0,12.9375,-12.125,-36.0,0.11649196819311039,-0.493257108387218,0.1333166947033955,0.8516769958648276,13.209803794432617,60.60447069052619,172.16533716846493,0.5218505859375,0.4425048828125,0.25653076171875,-0.68267822265625,13.173026740462051,60.68233525226305,-97.47686006269426,0.7684784888249339,,,,3,0,3,3
1788940061.4932675,1028061054.0,-8.73828125,1.10546875,4.640625,-0.048828125,0.052734375,-0.009765625,12.9375,-12.125,-36.0,12.9375,-12.125,-36.0,0.11644692327366274,-0.4934715187314472,0.13323743007436972,0.8515713484424862,13.200788555053498,60.63138585442054,172.16822327729614,0.5218505859375,0.4425048828125,0.25653076171875,-0.68267822265625,13.173026740462051,60.68233525226305,-97.47686006269426,0.7610200672423171,,,,3,0,3,3
1788940061.4994664,1028065313.0,-8.69921875,1.10546875,4.6015625,-0.052734375,0.04296875,-0.017578125,12.9375,-12.125,-36.0,12.9375,-12.125,-36.0,0.11640262105456456,-0.4937069178770512,0.13313834791663817,0.8514564518318,13.187834092158198,60.66090972992525,172.16891894138385,0.5218505859375,0.44256591796875,0.2568359375,-0.6824951171875,13.154746326388862,60.71040434412472,-97.46269478368255,1.0505526754650016,,,,3,0,3,3
1788940061.5014195,1028068989.0,-8.6953125,1.02734375,4.5625,-0.052734375,0.04296875,-0.017578125,12.9375,-12.125,-36.0,12.9375,-12.125,-36.0,0.11639423728855784,-0.4939120841786074,0.13300936215983397,0.8513587635105386,13.16433350805977,60.686718710506696,172.15837247247714,0.5218505859375,0.44256591796875,0.2568359375,-0.6824951171875,13.154746326388862,60.71040434412472,-97.46269478368255,1.0446067182903895,,,,3,0,3,3
1788940061.4912052,1028072719.0,-8.69921875,1.06640625,4.5625,-0.060546875,0.02734375,-0.017578125,12.9375,-12.125,-36.0,12.9375,-12.125,-36.0,0.11636664451446677,-0.4940969428956119,0.13289062916344466,0.851273807741198,13.144965078846095,60.70964545648738,172.15257858776906,0.5218505859375,0.44256591796875,0.2568359375,-0.6824951171875,13.154746326388862,60.71040434412472,-97.46269478368255,1.0395340999899139,,,,3,0,3,3
1788940061.502056,1028076379.0,-8.62109375,1.02734375,4.6015625,-0.05078125,0.01171875,-0.017578125,13.3125,-12.0625,-35.625,13.3125,-12.0625,-35.625,0.1163873432771634,-0.494249340164449,0.1327596166767364,0.8512029489209589,13.117155481902756,60.728907475056225,172.13509666727683,0.52191162109375,0.4425048828125,0.25714111328125,-0.68243408203125,13.115170228303251,60.7353095554577,-97.48312069754937,0.03858023539924395,,,,3,0,3,3
1788940061.5148456,1028080385.0,-8.58203125,1.02734375,4.5625,-0.05078125,-0.00390625,-0.013671875,13.3125,-12.0625,-35.625,13.3125,-12.0625,-35.625,0.1163975497327797,-0.4943895137083569,0.1326352851598746,0.8511395304425581,13.091805811458732,60.74645359782722,172.12031470545443,0.52191162109375,0.4425048828125,0.25714111328125,-0.68243408203125,13.115170228303251,60.7353095554577,-97.48312069754937,0.0,,,,3,0,3,3
1788940061.516813,1028084614.0,-8.5390625,1.02734375,4.640625,-0.05078125,-0.00390625,-0.013671875,13.3125,-12.0625,-35.625,13.3125,-12.0625,-35.625,0.11649438049966755,-0.49449204026016913,0.13240786591949721,0.8511021316351982,13.034963358716487,60.759381786048195,172.07521765133671,0.52191162109375,0.4425048828125,0.25714111328125,-0.68243408203125,13.115170228303251,60.7353095554577,-97.48312069754937,0.0,,,,3,0,3,3
1788940061.5211718,1028088397.0,-8.51171875,1.02734375,4.6796875,-0.041015625,-0.015625,-0.00390625,14.0625,-13.4375,-35.25,14.0625,-13.4375,-35.25,0.11651957086295528,-0.49447047067696925,0.13251162375728576,0.8510950668424867,13.052984210117208,60.757874347065325,172.0821843249253,0.52197265625,0.44232177734375,0.25732421875,-0.68243408203125,13.067390167559973,60.73210137278817,-97.50477258209582,0.25247081547177413,,,,3,0,3,3
1788940061.5196369,1028092904.0,-8.47265625,0.98828125,4.6796875,-0.046875,-0.025390625,0.001953125,14.0625,-13.4375,-35.25,14.0625,-13.4375,-35.25,0.11655514943396363,-0.49441793802772904,0.1326220467447269,0.8511035145116453,13.070891167030465,60.75249155347943,172.08739724521516,0.52197265625,0.44232177734375,0.25732421875,-0.68243408203125,13.067390167559973,60.73210137278817,-97.50477258209582,0.27111553675652855,,,,3,0,3,3
1788940061.528491,1028096086.0,-8.39453125,1.02734375,4.75390625,-0.04296875,-0.037109375,0.017578125,14.0625,-13.4375,-35.25,14.0625,-13.4375,-35.25,0.1165512965879706,-0.4943174189308248,0.13270979105493244,0.8511487507853057,13.088392221453914,60.739951982182355,172.09714735511596,0.5220947265625,0.442138671875,0.25738525390625,-0.68243408203125,13.041476953938611,60.71764756877326,-97.50890394236801,0.3727903023243014,,,,3,0,3,3
1788940061.5307045,1028100593.0,-8.390625,1.06640625,4.79296875,-0.05078125,-0.044921875,0.021484375,14.0625,-13.4375,-35.25,14.0625,-13.4375,-35.25,0.11651531910529633,-0.49414704836580065,0.13281624087299523,0.8512359961641216,13.112865595394583,60.71785824328187,172.11454944336583,0.5220947265625,0.442138671875,0.25738525390625,-0.68243408203125,13.041476953938611,60.71764756877326,-97.50890394236801,0.38234893341147974,,,,3,0,3,3
1788940061.5307045,1028103969.0,-8.35546875,1.06640625,4.79296875,-0.05078125,-0.044921875,0.021484375,14.0625,-13.4375,-35.25,14.0625,-13.4375,-35.25,0.11648771439581816,-0.49401506623313207,0.13289207470438819,0.8513045419885152,13.130423530782767,60.70068550262311,172.1271676428597,0.5220947265625,0.442138671875,0.25738525390625,-0.68243408203125,13.041476953938611,60.71764756877326,-97.50890394236801,0.389986682570364,,,,3,0,3,3
1788940061.5307045,1028107629.0,-8.31640625,1.10546875,4.83203125,-0.04296875,-0.041015625,0.041015625,16.375,-11.6875,-40.9375,16.375,-11.6875,-40.9375,0.11637330824384895,-0.4938861059981135,0.1327267925004909,0.8514207925479232,13.109067736843269,60.68036492433723,172.12865076836326,0.5223388671875,0.44189453125,0.25738525390625,-0.682373046875,13.029194583277809,60.687031206812726,-97.48352929908668,0.858184908455659,,,,3,0,2,3
1788940061.544173,1028111835.0,-8.3125,1.14453125,4.83203125,-0.052734375,-0.025390625,0.041015625,16.375,-11.6875,-40.9375,16.375,-11.6875,-40.9375,0.11621902680660094,-0.4937632368270193,0.1325311273195845,0.8515436007965954,13.086248268380043,60.65996725852896,172.13465163580622,0.5223388671875,0.44189453125,0.25738525390625,-0.682373046875,13.029194583277809,60.687031206812726,-97.48352929908668,0.8446156006482525,,,,3,0,2,3
1788940061.5470638,1028119971.0,-8.3125,1.14453125,4.83203125,-0.05078125,-0.015625,0.048828125,15.9375,-12.375,-39.6875,15.9375,-12.375,-39.6875,0.11589972077739268,-0.4934888247186692,0.13228690507774396,0.8517841330680332,13.071532354337691,60.616591911150934,172.16583811901472,0.52264404296875,0.44171142578125,0.25738525390625,-0.6822509765625,13.036745566949046,60.663559154586885,-97.43905987509818,0.9106277658572139,,,,3,0,2,3
1788940061.550999,1028123300.0,-8.43359375,1.14453125,4.87109375,-0.0546875,-0.00390625,0.052734375,15.9375,-12.375,-39.6875,15.9375,-12.375,-39.6875,0.11575832414878102,-0.4933965373905766,0.13217890767796198,0.8518735843106745,13.065282685264059,60.601255893938514,172.18009043156994,0.52264404296875,0.44171142578125,0.25738525390625,-0.6822509765625,13.036745566949046,60.663559154586885,-97.43905987509818,0.903676868058194,,,,3,0,2,3
1788940061.5623996,1028127736.0,-8.43359375,1.14453125,4.87109375,-0.060546875,0.013671875,0.056640625,16.25,-13.875,-40.1875,16.25,-13.875,-40.1875,0.11557781348502758,-0.4932759416297869,0.1322137571296178,0.8519625208100047,13.092321103897309,60.58289088216572,172.2186486093299,0.52294921875,0.441650390625,0.2574462890625,-0.68206787109375,13.060251082220649,60.660742333774635,-97.38535634724286,0.47010331821183715,,,,3,0,2,3
1788940061.5623996,1028131166.0,-8.5078125,1.21875,4.83203125,-0.064453125,0.02734375,0.048828125,16.25,-13.875,-40.1875,16.25,-13.875,-40.1875,0.1154184961367677,-0.4932243438328552,0.13228588712220968,0.8520027942844239,13.125017372023903,60.57429834619194,172.25835632863223,0.52294921875,0.441650390625,0.2574462890625,-0.68206787109375,13.060251082220649,60.660742333774635,-97.38535634724286,0.4708751024639208,,,,3,0,2,3
1788940061.560432,1028140232.0,-8.62109375,1.21875,4.75390625,-0.07421875,0.05078125,0.041015625,16.625,-12.0,-37.1875,16.625,-12.0,-37.1875,0.1147235314200453,-0.49326016084303076,0.13229605041083653,0.8520743395439829,13.208061197499086,60.568476762020026,172.39945070315912,0.52325439453125,0.44158935546875,0.25762939453125,-0.6817626953125,13.075276354304167,60.66027099994767,-97.31119180974434,0.9857549454004885,,,,3,0,2,3
1788940061.5623996,1028142832.0,-8.6171875,1.1796875,4.75390625,-0.07421875,0.05078125,0.041015625,16.625,-12.0,-37.1875,16.625,-12.0,-37.1875,0.11453237739747946,-0.4932612329345117,0.1322412039269141,0.8521079477364162,13.21912113281001,60.56519355942486,172.43130569737005,0.52325439453125,0.44158935546875,0.25762939453125,-0.6817626953125,13.075276354304167,60.66027099994767,-97.31119180974434,0.9806387144633997,,,,3,0,2,3
1788940061.5804744,1028147268.0,-8.6953125,1.1796875,4.6796875,-0.078125,0.056640625,0.02734375,12.375,-13.0,-35.875,12.375,-13.0,-35.875,0.11438722402135956,-0.49342345728545695,0.13233013163741275,0.8520197128247557,13.25552439445782,60.585176696639735,172.473460148366,0.52349853515625,0.441650390625,0.25787353515625,-0.68145751953125,13.09665155651541,60.68308938368988,-97.24731286920897,0.8578489151625673,,,,3,0,3,3
1788940061.5804744,1028150697.0,-8.734375,1.14453125,4.640625,-0.072265625,0.0546875,0.03125,12.375,-13.0,-35.875,12.375,-13.0,-35.875,0.11428350750006463,-0.4935667220531804,0.13238906643424475,0.8519414920543724,13.280894025314982,60.60302327230846,172.50350237663386,0.52349853515625,0.441650390625,0.25787353515625,-0.68145751953125,13.09665155651541,60.68308938368988,-97.24731286920897,0.8571012489690669,,,,3,0,3,3
1788940061.5866652,1028155157.0,-8.7734375,1.10546875,4.6015625,-0.0703125,0.05078125,0.017578125,14.25,-10.8125,-33.625,14.25,-10.8125,-33.625,0.11414877440414736,-0.49382544763180214,0.13222659784611615,0.8518348498361186,13.266021228536589,60.63370724884779,172.51541346554413,0.523681640625,0.441650390625,0.25823974609375,-0.68121337890625,13.082581830367213,60.71380234766278,-97.21879971292897,0.34343758343608743,,,,3,0,3,3
1788940061.5886328,1028158833.0,-8.85546875,1.10546875,4.5625,-0.0703125,0.05078125,0.017578125,14.25,-10.8125,-33.625,14.25,-10.8125,-33.625,0.11403954206970868,-0.4940390442222162,0.1321126731136715,0.8517432989060086,13.257619919168633,60.659254165116415,172.527238985531,0.523681640625,0.441650390625,0.25823974609375,-0.68121337890625,13.082581830367213,60.71380234766278,-97.21879971292897,0.3159042440092259,,,,3,0,3,3
1788940061.5926576,1028162563.0,-8.89453125,1.14453125,4.5625,-0.060546875,0.03515625,0.01171875,14.25,-10.8125,-33.625,14.25,-10.8125,-33.625,0.11394051147237348,-0.4942287064092531,0.13202466301930957,0.8516601634226459,13.253078189466143,60.68202710377022,172.53971243824753,0.523681640625,0.441650390625,0.25823974609375,-0.68121337890625,13.082581830367213,60.71380234766278,-97.21879971292897,0.29419841666015006,,,,3,0,3,3
1788940061.5991716,1028166322.0,-8.9296875,1.1796875,4.5625,-0.048828125,0.02734375,0.0,13.8125,-11.875,-34.5,13.8125,-11.875,-34.5,0.11388090797180095,-0.49438317609019167,0.1320333297510796,0.8515771332259547,13.26328747077655,60.70160331826678,172.55519384248444,0.5238037109375,0.441650390625,0.25848388671875,-0.6810302734375,13.074419860282845,60.732205280051,-97.19368898668674,0.21986195929116617,,,,3,0,3,3
1788940061.602997,1028170229.0,-8.89453125,1.1796875,4.5234375,-0.05078125,0.005859375,-0.005859375,13.8125,-11.875,-34.5,13.8125,-11.875,-34.5,0.11383118907375031,-0.4945102760353632,0.1320278446591916,0.8515108311255548,13.269210109686842,60.71759140261447,172.56657954983532,0.5238037109375,0.441650390625,0.25848388671875,-0.6810302734375,13.074419860282845,60.732205280051,-97.19368898668674,0.2131777439209347,,,,3,0,3,3
1788940061.6030593,1028174458.0,-8.890625,1.14453125,4.5234375,-0.05078125,0.005859375,-0.005859375,13.8125,-11.875,-34.5,13.8125,-11.875,-34.5,0.11378573492926504,-0.49465283519633474,0.13201048866666582,0.8514367915710612,13.272376282960668,60.735587250021936,172.57595116763002,0.5238037109375,0.441650390625,0.25848388671875,-0.6810302734375,13.074419860282845,60.732205280051,-97.19368898668674,0.2053307097330346,,,,3,0,3,3
1788940061.6050124,1028178441.0,-8.89453125,1.10546875,4.5234375,-0.048828125,-0.001953125,-0.0234375,13.4375,-11.4375,-34.8125,13.4375,-11.4375,-34.8125,0.11377415443189681,-0.4947983554077881,0.13190055111792298,0.8513708204324619,13.252740562184751,60.75369435830395,172.56752258732504,0.52386474609375,0.4415283203125,0.2586669921875,-0.68096923828125,13.040412544570016,60.732584238800015,-97.1975431223582,0.6921567492952408,,,,3,0,3,3
1788940061.6050124,1028182547.0,-8.85546875,1.06640625,4.5625,-0.044921875,-0.01953125,-0.02734375,13.4375,-11.4375,-34.8125,13.4375,-11.4375,-34.8125,0.11379045414910098,-0.49491955957016964,0.13176041900983929,0.8513198893963199,13.223430909820218,60.76875281402372,172.5494704261898,0.52386474609375,0.4415283203125,0.2586669921875,-0.68096923828125,13.040412544570016,60.732584238800015,-97.1975431223582,0.6832322196473422,,,,3,0,3,3
1788940061.6201968,1028185930.0,-8.734375,1.02734375,4.5234375,-0.0390625,-0.033203125,-0.025390625,13.4375,-11.4375,-34.8125,13.4375,-11.4375,-34.8125,0.11381731173089976,-0.49499780166111085,0.13163809080136596,0.8512897326710748,13.196083650934606,60.77844497928335,172.5307102793977,0.52386474609375,0.4412841796875,0.25885009765625,-0.6810302734375,12.97275724147107,60.72241415226774,-97.23848229653694,0.9894926256915217,,,,3,0,3,3
1788940061.6232736,1028190436.0,-8.73828125,0.98828125,4.5625,-0.037109375,-0.052734375,-0.01953125,13.4375,-11.4375,-34.8125,13.4375,-11.4375,-34.8125,0.11387045147372447,-0.4950568987263595,0.13144389816998844,0.85127826762962,13.15079866498469,60.785373802669696,172.497760206445,0.52386474609375,0.4412841796875,0.25885009765625,-0.6810302734375,12.97275724147107,60.72241415226774,-97.23848229653694,0.98116598389566,,,,3,0,3,3
1788940061.625194,1028193813.0,-8.6953125,0.98828125,4.6015625,-0.037109375,-0.052734375,-0.01953125,13.4375,-11.4375,-34.8125,13.4375,-11.4375,-34.8125,0.11391981108846722,-0.49509462282787214,0.13127655873703523,0.8512755465856262,13.111221775461283,60.78964501880701,172.4684276436398,0.52386474609375,0.4412841796875,0.25885009765625,-0.6810302734375,12.97275724147107,60.72241415226774,-97.23848229653694,0.9743689854020294,,,,3,0,3,3
1788940061.630714,1028198549.0,-8.6171875,0.953125,4.640625,-0.029296875,-0.060546875,-0.01953125,13.0625,-12.375,-37.4375,13.0625,-12.375,-37.4375,0.11403177641242805,-0.49507485812401014,0.1309832875064638,0.8513172247850482,13.038084081485714,60.78613827121901,172.41055467662804,0.52392578125,0.4410400390625,0.25885009765625,-0.68115234375,12.931182213080733,60.69977982911836,-97.27213185308621,0.8657669481194022,,,,3,0,3,3
1788940061.6345923,1028201679.0,-8.578125,0.953125,4.640625,-0.017578125,-0.064453125,-0.005859375,13.0625,-12.375,-37.4375,13.0625,-12.375,-37.4375,0.11410112525488292,-0.4950419042333528,0.13081022732896488,0.8513537048105976,12.994362383233222,60.78128848079233,172.37542987385152,0.52392578125,0.4410400390625,0.25885009765625,-0.68115234375,12.931182213080733,60.69977982911836,-97.27213185308621,0.8583173069423551,,,,3,0,3,3
1788940061.6405854,1028210014.0,-8.5078125,1.02734375,4.75390625,-0.02734375,-0.0703125,-0.001953125,16.875,-11.5,-39.8125,16.875,-11.5,-39.8125,0.11407312136347189,-0.4947329662291123,0.13031315448173017,0.8516132319765584,12.893683894676633,60.73554862075516,172.31727324565085,0.5240478515625,0.44073486328125,0.2587890625,-0.6812744140625,12.893534309666494,60.66363321599009,-97.29589890023283,0.8908351625127098,,,,3,0,2,3
1788940061.6445954,1028214121.0,-8.46875,1.02734375,4.79296875,-0.0234375,-0.0703125,0.00390625,16.875,-11.5,-39.8125,16.875,-11.5,-39.8125,0.11405289779078688,-0.49456210304571985,0.13009377087662077,0.8517487150067327,12.849962933420839,60.71067249122779,172.29276737229088,0.5240478515625,0.44073486328125,0.2587890625,-0.6812744140625,12.893534309666494,60.66363321599009,-97.29589890023283,0.8801522254803081,,,,3,0,2,3
1788940061.6499712,1028217780.0,-8.47265625,1.06640625,4.79296875,-0.0234375,-0.05859375,0.009765625,16.375,-12.1875,-41.0,16.375,-12.1875,-41.0,0.11401191821623646,-0.49441488673399386,0.12991858855735905,0.8518663995179819,12.817905248752858,60.689010787598896,172.27808210540027,0.52423095703125,0.4404296875,0.2586669921875,-0.681396484375,12.86991867710121,60.62372050882427,-97.31026842449992,0.6556144397367252,,,,3,0,2,3
1788940061.6545715,1028221886.0,-8.46875,1.02734375,4.79296875,-0.029296875,-0.052734375,0.013671875,16.375,-12.1875,-41.0,16.375,-12.1875,-41.0,0.11396286057561453,-0.4942671466766147,0.12970864309623253,0.8519906818925398,12.779753709885426,60.66684549230403,172.26092621629232,0.52423095703125,0.4404296875,0.2586669921875,-0.681396484375,12.86991867710121,60.62372050882427,-97.31026842449992,0.642174134549441,,,,3,0,2,3
1788940061.6545715,1028229822.0,-8.47265625,1.06640625,4.79296875,-0.03515625,-0.037109375,0.013671875,16.5,-11.0625,-40.1875,16.5,-11.0625,-40.1875,0.11381928750417201,-0.49406858129020775,0.12926720709569442,0.8521921121106455,12.705246841163657,60.63445947929901,172.23468122563116,0.52435302734375,0.440185546875,0.25860595703125,-0.68145751953125,12.846078933322964,60.59105196334147,-97.31612209380893,0.9248601378974592,,,,3,0,2,3
1788940061.6704326,1028234435.0,-8.51171875,1.06640625,4.75390625,-0.044921875,-0.025390625,0.029296875,16.5,-11.0625,-40.1875,16.5,-11.0625,-40.1875,0.11368580134728408,-0.49399335442709147,0.1289996929319399,0.8522940710678216,12.665907056667757,60.620112747042825,172.2287952279285,0.52459716796875,0.44000244140625,0.25860595703125,-0.681396484375,12.843905562487869,60.570406217187106,-97.29148238347909,0.8352498951430554,,,,3,0,2,3
1788940061.679318,1028249154.0,-8.578125,1.10546875,4.71484375,-0.05078125,-0.00390625,0.0390625,16.625,-10.0625,-36.625,16.625,-10.0625,-36.625,0.11312123688822877,-0.4939605636367921,0.12813248765039212,0.8525189809881197,12.555429742743899,60.59961631103906,172.239210709544,0.52484130859375,0.43988037109375,0.2586669921875,-0.6812744140625,12.847554128635851,60.56068149254126,-97.25714850625643,0.6887029553430761,,,,3,0,2,3
1788940061.6859684,1028254843.0,-8.6171875,1.10546875,4.71484375,-0.05859375,0.00390625,0.041015625,13.4375,-13.375,-35.0625,13.4375,-13.375,-35.0625,0.11297342299524117,-0.49398517531793507,0.12831985739825325,0.8524961386775539,12.610836293297428,60.60240032891029,172.2913817480555,0.52484130859375,0.43988037109375,0.2586669921875,-0.6812744140625,12.847554128635851,60.56068149254126,-97.25714850625643,0.6904962710095007,,,,3,0,3,3
1788940061.6859684,1028264102.0,-8.69921875,1.14453125,4.6796875,-0.0546875,0.00390625,0.044921875,12.625,-11.75,-34.0,12.625,-11.75,-34.0,0.112653091316085,-0.4941048243919458,0.1286028428473417,0.8524265436629224,12.706506758339204,60.616033582339114,172.39087115302945,0.52520751953125,0.43975830078125,0.2587890625,-0.6810302734375,12.862760004280174,60.553294567682244,-97.191931406459,0.6313016499916159,,,,3,0,3,3
1788940061.697199,1028268685.0,-8.73828125,1.10546875,4.6796875,-0.05078125,0.001953125,0.03125,12.625,-11.75,-34.0,12.625,-11.75,-34.0,0.11254615669269116,-0.4941851745094772,0.12871395020014137,0.8523773195789627,12.742177276089167,60.62605877771895,172.4266574401725,0.52520751953125,0.43975830078125,0.2587890625,-0.6810302734375,12.862760004280174,60.553294567682244,-97.191931406459,0.6345086101896853,,,,3,0,3,3
1788940061.70291,1028272591.0,-8.73828125,1.06640625,4.640625,-0.0625,0.001953125,0.025390625,12.625,-11.75,-34.0,12.625,-11.75,-34.0,0.11246587248916311,-0.49427833521997944,0.1287562786292647,0.8523275048776499,12.76090348649149,60.63755778535375,172.44915344278246,0.52545166015625,0.43963623046875,0.2589111328125,-0.68084716796875,12.862172304183892,60.54483198609731,-97.14748280766608,0.9528399243889999,,,,3,0,3,3
1788940061.70291,1028276374.0,-8.66015625,0.98828125,4.6015625,-0.060546875,-0.00390625,0.025390625,13.0,-13.5,-35.8125,13.0,-13.5,-35.8125,0.1124194938752694,-0.49433224692878336,0.1288261109735117,0.8522918045919537,12.780949379381086,60.644612050905174,172.46753456011763,0.52545166015625,0.43963623046875,0.2589111328125,-0.68084716796875,12.862172304183892,60.54483198609731,-97.14748280766608,0.954882294160167,,,,3,0,3,3
1788940061.7130141,1028280080.0,-8.66015625,1.02734375,4.5625,-0.0625,-0.015625,0.017578125,13.0,-13.5,-35.8125,13.0,-13.5,-35.8125,0.11237503837947274,-0.4943716007239468,0.12888228124772488,0.8522663484658048,12.797879529004403,60.64964777083642,172.48370412107326,0.525634765625,0.43951416015625,0.259033203125,-0.68072509765625,12.851898976592999,60.538962353962965,-97.12255520975403,1.0800597384282302,,,,3,0,3,3
1788940061.7144358,1028284510.0,-8.6953125,0.98828125,4.5625,-0.0625,-0.015625,0.017578125,13.0,-13.5,-35.8125,13.0,-13.5,-35.8125,0.11233182596129201,-0.4944283201309915,0.12893643257225448,0.8522309507898597,12.814409690069699,60.65697837727048,172.49964734246566,0.525634765625,0.43951416015625,0.259033203125,-0.68072509765625,12.851898976592999,60.538962353962965,-97.12255520975403,1.081754612834162,,,,3,0,3,3
1788940061.7205079,1028287616.0,-8.6953125,0.953125,4.5625,-0.060546875,-0.021484375,0.015625,13.875,-13.8125,-34.6875,13.875,-13.8125,-34.6875,0.11230814078252863,-0.49445200003109496,0.12898401113925229,0.8522131341687071,12.827047409568133,60.660173026308726,172.51040175030676,0.525634765625,0.43951416015625,0.259033203125,-0.68072509765625,12.851898976592999,60.538962353962965,-97.12255520975403,1.0831857779387684,,,,3,0,3,3
1788940061.7245245,1028292299.0,-8.65625,0.953125,4.640625,-0.056640625,-0.03515625,0.017578125,13.875,-13.8125,-34.6875,13.875,-13.8125,-34.6875,0.11228589843806014,-0.49443744273151125,0.12907762742545684,0.852210336909437,12.848544012457277,60.65873569351332,172.5257574713768,0.52587890625,0.43927001953125,0.2591552734375,-0.6806640625,12.823997793956774,60.52368911240818,-97.11382032672167,0.9566553617966832,,,,3,0,3,3
1788940061.7296386,1028295982.0,-8.65625,0.953125,4.640625,-0.05078125,-0.037109375,0.013671875,12.8125,-15.125,-37.375,12.8125,-15.125,-37.375,0.11228865808307285,-0.49441956937312187,0.12915582321296876,0.8522084956259117,12.863960218995862,60.65709745698276,172.53420792500714,0.52587890625,0.43927001953125,0.2591552734375,-0.6806640625,12.823997793956774,60.52368911240818,-97.11382032672167,0.9596059708411033,,,,3,0,3,3
1788940061.7336779,1028299888.0,-8.6171875,0.9140625,4.640625,-0.046875,-0.0390625,0.013671875,12.8125,-15.125,-37.375,12.8125,-15.125,-37.375,0.11230589526291979,-0.494395246371377,0.12924172188094754,0.8522073125594659,12.879196131651907,60.654890059081595,172.54056374438807,0.52606201171875,0.43902587890625,0.25921630859375,-0.6806640625,12.794233936811251,60.5035241272038,-97.11648387099248,0.9093997449640049,,,,3,0,3,3
1788940061.7334025,1028305018.0,-8.6171875,0.875,4.640625,-0.046875,-0.0390625,0.013671875,12.8125,-15.125,-37.375,12.8125,-15.125,-37.375,0.11234116302603658,-0.4943679348454237,0.12934544780438284,0.8522027711870644,12.89592589541766,60.652713331497445,172.54536318350102,0.52606201171875,0.43902587890625,0.25921630859375,-0.6806640625,12.794233936811251,60.5035241272038,-97.11648387099248,0.9147645764902782,,,,3,0,3,3
1788940061.7353556,1028307624.0,-8.54296875,0.875,4.6015625,-0.052734375,-0.041015625,0.01171875,16.3125,-12.375,-39.3125,16.3125,-12.375,-39.3125,0.1123428214325845,-0.49437403741126723,0.12917614726762272,0.8522246913715554,12.861376686878154,60.65206619435036,172.5250495677818,0.52606201171875,0.43902587890625,0.25921630859375,-0.6806640625,12.794233936811251,60.5035241272038,-97.11648387099248,0.9066973859604555,,,,3,0,3,3
1788940061.7353556,1028311130.0,-8.51171875,0.875,4.640625,-0.04296875,-0.04296875,0.01171875,16.3125,-12.375,-39.3125,16.3125,-12.375,-39.3125,0.112357374001901,-0.49435122891720157,0.12895280068732537,0.8522698270913646,12.814093870290256,60.647310946108846,172.49531110071672,0.52630615234375,0.43878173828125,0.25921630859375,-0.6806640625,12.778365063758855,60.479586313386704,-97.10987339598137,0.5231115462915872,,,,3,0,3,3
1788940061.74805,1028315513.0,-8.51171875,0.875,4.6796875,-0.044921875,-0.046875,0.013671875,16.3125,-12.375,-39.3125,16.3125,-12.375,-39.3125,0.11237214125363547,-0.49429060366459926,0.1286700600798356,0.8523457729337376,12.754415565589365,60.63702714969196,172.45795356602366,0.52630615234375,0.43878173828125,0.25921630859375,-0.6806640625,12.778365063758855,60.479586313386704,-97.10987339598137,0.4987703820489688,,,,3,0,3,3
1788940061.7539983,1028322896.0,-8.4296875,0.875,4.6796875,-0.033203125,-0.046875,0.009765625,16.125,-13.5,-40.875,16.125,-13.5,-40.875,0.11254633804924889,-0.49412607894988164,0.1283070243126569,0.8524729012733195,12.659061638192032,60.6146328955644,172.37761880754204,0.5264892578125,0.43853759765625,0.25921630859375,-0.6806640625,12.75643574637784,60.45198961811208,-97.10446884534447,0.72928189802801,,,,3,0,2,3
1788940061.76,1028327355.0,-8.43359375,0.875,4.71484375,-0.029296875,-0.04296875,0.015625,15.5625,-11.8125,-42.125,15.5625,-11.8125,-42.125,0.11250508890500273,-0.4940369467058427,0.12804727282124112,0.8525690565479658,12.610447833471634,60.5999247903032,172.35392965331368,0.5264892578125,0.43853759765625,0.25921630859375,-0.6806640625,12.75643574637784,60.45198961811208,-97.10446884534447,0.7128132719887141,,,,3,0,2,3
1788940061.7639992,1028331261.0,-8.39453125,0.9140625,4.75390625,-0.017578125,-0.041015625,0.013671875,15.5625,-11.8125,-42.125,15.5625,-11.8125,-42.125,0.11247599162453786,-0.493941640506295,0.12784701759549613,0.852658165488353,12.57247445097332,60.58510771322454,172.3347791814773,0.526611328125,0.4383544921875,0.25921630859375,-0.6806640625,12.73848754484371,60.43038899194501,-97.1007189472619,0.9632602208016747,,,,3,0,2,3
1788940061.764961,1028339121.0,-8.39453125,0.953125,4.71484375,-0.03125,-0.041015625,0.01171875,17.4375,-12.875,-36.5,17.4375,-12.875,-36.5,0.11253646099971167,-0.49372543911150396,0.12810217286339382,0.8527371042868314,12.615498526642664,60.55970269020502,172.34975172027148,0.526611328125,0.4383544921875,0.25921630859375,-0.6806640625,12.73848754484371,60.43038899194501,-97.1007189472619,0.9700838654885645,,,,3,0,2,3
1788940061.764961,1028342827.0,-8.39453125,0.98828125,4.71484375,-0.03125,-0.0390625,0.0078125,17.4375,-12.875,-36.5,17.4375,-12.875,-36.5,0.11255337440017985,-0.4936283875650426,0.12822561656808368,0.8527725043391138,12.637789471096069,60.54822862120765,172.35955818542612,0.52679443359375,0.43817138671875,0.2591552734375,-0.68072509765625,12.730814260322026,60.4112190172742,-97.10594052985513,0.0,,,,3,0,2,3
1788940061.7826576,1028347186.0,-8.43359375,0.953125,4.75390625,-0.033203125,-0.03515625,0.00390625,12.5,-10.4375,-34.5,12.5,-10.4375,-34.5,0.1125304010307906,-0.49352783966962904,0.12797111683470824,0.8528719561405192,12.588119565129624,60.53232715023259,172.33275671619543,0.52679443359375,0.43817138671875,0.2591552734375,-0.68072509765625,12.730814260322026,60.4112190172742,-97.10594052985513,0.0,,,,3,0,3,3
1788940061.7836618,1028350593.0,-8.39453125,0.953125,4.71484375,-0.025390625,-0.033203125,0.001953125,12.5,-10.4375,-34.5,12.5,-10.4375,-34.5,0.11251970440891677,-0.49345623215228074,0.1277785469418507,0.8529436710658176,12.549821766827895,60.520980073117045,172.31122594733154,0.52691650390625,0.43798828125,0.2591552734375,-0.68072509765625,12.712889867938756,60.38964112536646,-97.10219550864954,0.511558655436076,,,,3,0,3,3
1788940061.784711,1028354922.0,-8.39453125,0.98828125,4.71484375,-0.025390625,-0.033203125,0.001953125,12.5,-10.4375,-34.5,12.5,-10.4375,-34.5,0.11249160530145136,-0.49335716799476265,0.12753958927262585,0.8530404425893651,12.50397354593167,60.50532997243568,172.28737221816795,0.52691650390625,0.43798828125,0.2591552734375,-0.68072509765625,12.712889867938756,60.38964112536646,-97.10219550864954,0.4915375642720254,,,,3,0,3,3
1788940061.7891796,1028358329.0,-8.43359375,1.02734375,4.75390625,-0.025390625,-0.03515625,0.00390625,13.0,-9.625,-35.0625,13.0,-9.625,-35.0625,0.11244846166688768,-0.49328731606960485,0.12734788052989965,0.8531151649092511,12.469674497558964,60.493744280286606,172.272517828261,0.52691650390625,0.43798828125,0.2591552734375,-0.68072509765625,12.712889867938756,60.38964112536646,-97.10219550864954,0.47533964504491516,,,,3,0,3,3
1788940061.7891796,1028362811.0,-8.4296875,1.06640625,4.75390625,-0.01953125,-0.03515625,0.001953125,13.0,-9.625,-35.0625,13.0,-9.625,-35.0625,0.11238909970603071,-0.49318892419369004,0.12711068071474094,0.8532152425784326,12.42787006413806,60.47774075403584,172.25520326179756,0.5269775390625,0.43780517578125,0.2591552734375,-0.6807861328125,12.685361433661322,60.3706047880764,-97.11783605156658,0.6221733035182363,,,,3,0,3,3
1788940061.787056,1028366594.0,-8.47265625,1.06640625,4.71484375,-0.01953125,-0.029296875,0.001953125,13.6875,-13.0,-35.6875,13.6875,-13.0,-35.6875,0.11240099817846254,-0.4931351154580769,0.12725855746740256,0.8532227335590339,12.456002394937048,60.47214087145164,172.26947441638052,0.5269775390625,0.43780517578125,0.2591552734375,-0.6807861328125,12.685361433661322,60.3706047880764,-97.11783605156658,0.6280990437452095,,,,3,0,3,3
1788940061.7957861,1028370000.0,-8.51171875,1.10546875,4.75390625,-0.025390625,-0.03515625,0.0,13.6875,-13.0,-35.6875,13.6875,-13.0,-35.6875,0.1124031573117889,-0.49307252451624145,0.127382054786081,0.8532401935633351,12.480262053777073,60.465017860914685,172.28270470631017,0.52703857421875,0.4376220703125,0.2591552734375,-0.68084716796875,12.657861993225772,60.35157438683303,-97.13346158450763,0.761681750096416,,,,3,0,3,3
1788940061.795972,1028375083.0,-8.51171875,1.06640625,4.75390625,-0.033203125,-0.03125,0.005859375,13.6875,-13.0,-35.6875,13.6875,-13.0,-35.6875,0.11239923462179985,-0.49299081503262254,0.1275555023137144,0.8532620126194534,12.51517023109596,60.45572886136227,172.3027470892333,0.52703857421875,0.4376220703125,0.2591552734375,-0.68084716796875,12.657861993225772,60.35157438683303,-97.13346158450763,0.7675801196023196,,,,3,0,3,3
1788940061.7979686,1028378236.0,-8.51171875,1.06640625,4.71484375,-0.033203125,-0.03125,0.005859375,13.0625,-12.9375,-35.375,13.0625,-12.9375,-35.375,0.11239760657684797,-0.4929528710897616,0.12766079966686375,0.8532684015880196,12.536355040128933,60.451639214362004,172.3149153061343,0.52703857421875,0.4376220703125,0.2591552734375,-0.68084716796875,12.657861993225772,60.35157438683303,-97.13346158450763,0.7716544639013118,,,,3,0,3,3
1788940061.8136942,1028381843.0,-8.51171875,1.06640625,4.75390625,-0.029296875,-0.025390625,0.001953125,13.0625,-12.9375,-35.375,13.0625,-12.9375,-35.375,0.11240658121899724,-0.49290438450744567,0.127786924078852,0.8532763504671034,12.560438663104243,60.44649717611534,172.32725708879974,0.52716064453125,0.43743896484375,0.2591552734375,-0.68084716796875,12.639996485559623,60.330030765379625,-97.12970763963608,1.0178235831692262,,,,3,0,3,3
1788940061.8182988,1028385549.0,-8.51171875,1.06640625,4.75390625,-0.029296875,-0.025390625,0.009765625,13.0625,-12.9375,-35.375,13.0625,-12.9375,-35.375,0.11240411954082054,-0.49285289650856967,0.12792349393332061,0.8532859520777648,12.587925513527837,60.440883534775296,172.3430637014154,0.52716064453125,0.43743896484375,0.2591552734375,-0.68084716796875,12.639996485559623,60.330030765379625,-97.12970763963608,1.022400580496173,,,,3,0,3,3
1788940061.8222637,1028390508.0,-8.46875,1.02734375,4.75390625,-0.029296875,-0.0234375,0.017578125,12.75,-12.4375,-35.375,12.75,-12.4375,-35.375,0.11241198630150738,-0.4927528147120626,0.12810663117559665,0.8533152406806813,12.623241692986424,60.42941686577784,172.3615795869578,0.52728271484375,0.43731689453125,0.2591552734375,-0.68084716796875,12.632112551869637,60.31811640929294,-97.12641172186116,0.8866109445599454,,,,3,0,3,3
1788940061.827533,1028394714.0,-8.47265625,1.06640625,4.79296875,-0.0390625,-0.0234375,0.029296875,12.75,-12.4375,-35.375,12.75,-12.4375,-35.375,0.1123654269598044,-0.49264288099856035,0.12825314073504826,0.8533628387252254,12.657344837521116,60.41551982493389,172.3865180054237,0.52728271484375,0.43731689453125,0.2591552734375,-0.68084716796875,12.632112551869637,60.31811640929294,-97.12641172186116,0.890882400618247,,,,3,0,3,3
1788940061.8294861,1028397268.0,-8.46875,1.02734375,4.79296875,-0.0390625,-0.0234375,0.029296875,12.375,-13.8125,-38.0,12.375,-13.8125,-38.0,0.11235508437033712,-0.4925859768228396,0.12834106783865698,0.853383829680207,12.675841360251415,60.408634594080006,172.3980841999177,0.52728271484375,0.43731689453125,0.2591552734375,-0.68084716796875,12.632112551869637,60.31811640929294,-97.12641172186116,0.8944258155322061,,,,3,0,3,3
1788940061.8313293,1028401750.0,-8.4296875,1.06640625,4.79296875,-0.04296875,-0.03125,0.03515625,12.375,-13.8125,-38.0,12.375,-13.8125,-38.0,0.1123011550872399,-0.49245923403637204,0.12849502014515923,0.8534409078408866,12.712121077759193,60.39246807279152,172.42508405432125,0.5274658203125,0.43719482421875,0.2591552734375,-0.6807861328125,12.633823489994958,60.30369273262803,-97.10377431640784,0.8873511074408826,,,,3,0,3,3
1788940061.8273942,1028405457.0,-8.390625,1.06640625,4.75390625,-0.03125,-0.029296875,0.041015625,12.375,-13.8125,-38.0,12.375,-13.8125,-38.0,0.112256537832674,-0.4923615862244428,0.1286502710651935,0.8534797278665875,12.74779673617971,60.38028691633583,172.4507637944238,0.5274658203125,0.43719482421875,0.2591552734375,-0.6807861328125,12.633823489994958,60.30369273262803,-97.10377431640784,0.8936609869541081,,,,3,0,3,3
1788940061.8313293,1028409310.0,-8.390625,1.10546875,4.79296875,-0.03125,-0.029296875,0.041015625,16.625,-11.375,-39.1875,16.625,-11.375,-39.1875,0.11213458644099374,-0.492244778249881,0.128494943283046,0.8535865289237639,12.729544417182906,60.36169114847429,172.45524060992014,0.5274658203125,0.43719482421875,0.2591552734375,-0.6807861328125,12.633823489994958,60.30369273262803,-97.10377431640784,0.8793940920958653,,,,3,0,3,3
1788940061.8293762,1028414493.0,-8.35546875,1.06640625,4.75390625,-0.037109375,-0.037109375,0.05078125,16.625,-11.375,-39.1875,16.625,-11.375,-39.1875,0.11195655529144122,-0.4920853027736546,0.12826333065649662,0.8537366704847211,12.702024919398847,60.335968567522784,172.46138428121728,0.5277099609375,0.43701171875,0.25909423828125,-0.68072509765625,12.639350453449758,60.275885549435216,-97.0715097820731,0.9935329937224106,,,,3,0,3,3
1788940061.8504293,1028417775.0,-8.3515625,1.02734375,4.79296875,-0.04296875,-0.04296875,0.0546875,16.625,-11.375,-39.1875,16.625,-11.375,-39.1875,0.11184714530231925,-0.49197315997278046,0.1281122433083266,0.8538383213867992,12.683245130898634,60.31822297013577,172.46394633918618,0.5277099609375,0.43701171875,0.25909423828125,-0.68072509765625,12.639350453449758,60.275885549435216,-97.0715097820731,0.9824200654291612,,,,3,0,3,3
1788940061.8544443,1028421482.0,-8.3125,1.02734375,4.83203125,-0.033203125,-0.041015625,0.0546875,16.625,-11.375,-39.1875,16.625,-11.375,-39.1875,0.11173333264547888,-0.4918342187917955,0.12797220559932754,0.8539542600136394,12.666989495582165,60.296977296776255,172.46830182722297,0.52801513671875,0.43682861328125,0.259033203125,-0.68060302734375,12.654420526050139,60.24559449852172,-97.01999167197185,1.199809572370121,,,,3,0,3,3
1788940061.8565326,1028424688.0,-8.27734375,1.02734375,4.83203125,-0.029296875,-0.044921875,0.056640625,16.625,-11.375,-39.1875,16.625,-11.375,-39.1875,0.11163585061633624,-0.49170421797862435,0.12786157609985296,0.8540584384200287,12.654859281761386,60.27741488367323,172.47296823266115,0.52801513671875,0.43682861328125,0.259033203125,-0.68060302734375,12.654420526050139,60.24559449852172,-97.01999167197185,1.1928145433628456,,,,3,0,3,3
1788940061.8604677,1028428641.0,-8.27734375,0.98828125,4.83203125,-0.029296875,-0.044921875,0.056640625,15.6875,-11.6875,-41.0625,15.6875,-11.6875,-41.0625,0.11151655077118354,-0.49156069532947844,0.12770584395046244,0.8541799336979287,12.636054134184585,60.25535574812638,172.47654069190392,0.52801513671875,0.43682861328125,0.259033203125,-0.68060302734375,12.654420526050139,60.24559449852172,-97.01999167197185,1.1842177252695754,,,,3,0,2,3
1788940061.8585405,1028434024.0,-8.3125,1.02734375,4.83203125,-0.041015625,-0.044921875,0.064453125,15.6875,-11.6875,-41.0625,15.6875,-11.6875,-41.0625,0.11130856222857347,-0.49136509088025465,0.1274790614028535,0.8543534633526655,12.612714378805794,60.224508479619104,172.48876687550654,0.52838134765625,0.43670654296875,0.2589111328125,-0.6805419921875,12.689590172886685,60.227272030181396,-96.97797988110202,0.0,,,,3,0,2,3
1788940061.8624756,1028436330.0,-8.27734375,1.02734375,4.83203125,-0.044921875,-0.04296875,0.06640625,15.6875,-11.6875,-41.0625,15.6875,-11.6875,-41.0625,0.11121494220670533,-0.4912809554893162,0.1273820565132366,0.8544285055415242,12.603262791577405,60.21118819028759,172.49491930926428,0.52838134765625,0.43670654296875,0.2589111328125,-0.6805419921875,12.689590172886685,60.227272030181396,-96.97797988110202,0.0,,,,3,0,2,3
1788940061.8624756,1028441013.0,-8.27734375,1.02734375,4.79296875,-0.041015625,-0.0390625,0.06640625,15.6875,-11.6875,-41.0625,15.6875,-11.6875,-41.0625,0.1110252720072697,-0.49112675610279843,0.12718380433771748,0.8545713418608416,12.583901170830433,60.18633893425188,172.50741928419828,0.5286865234375,0.4365234375,0.2587890625,-0.680419921875,12.712279522405693,60.189580957030614,-96.91868272355632,0.6996279792726421,,,,3,0,2,3
1788940061.8745995,1028445496.0,-8.31640625,1.06640625,4.83203125,-0.05078125,-0.03515625,0.0625,15.6875,-11.6875,-41.0625,15.6875,-11.6875,-41.0625,0.11082972513370078,-0.49098022149414217,0.12698377350163775,0.8547106618006096,12.564919262511735,60.16240956470487,172.52099532853143,0.5286865234375,0.4365234375,0.2587890625,-0.680419921875,12.712279522405693,60.189580957030614,-96.91868272355632,0.6825028105190007,,,,3,0,2,3
1788940061.8785346,1028448172.0,-8.35546875,1.06640625,4.79296875,-0.05078125,-0.03515625,0.0625,13.25,-13.125,-36.4375,13.25,-13.125,-36.4375,0.1107554342907589,-0.49090281108342315,0.1270881165921162,0.85474924654341,12.593707707644544,60.15202416641198,172.54673553878135,0.5286865234375,0.4365234375,0.2587890625,-0.680419921875,12.712279522405693,60.189580957030614,-96.91868272355632,0.6852070031030874,,,,3,0,2,3
1788940061.880758,1028451879.0,-8.3515625,0.98828125,4.87109375,-0.046875,-0.033203125,0.0546875,13.25,-13.125,-36.4375,13.25,-13.125,-36.4375,0.11069972702988508,-0.49076678193333567,0.12719857860496278,0.8548181431083361,12.621112916805155,60.13422890388304,172.56863919598325,0.529052734375,0.43634033203125,0.2587890625,-0.68023681640625,12.72897813819685,60.164301128912825,-96.85617090516719,0.8883517166342422,,,,3,0,2,3
1788940061.880758,1028456438.0,-8.3515625,0.98828125,4.83203125,-0.052734375,-0.025390625,0.052734375,12.875,-13.3125,-34.75,12.875,-13.3125,-34.75,0.11061801427642792,-0.49066933689488434,0.12735861265747775,0.8548608310892698,12.661702891817809,60.12156493704505,172.6019617379278,0.529052734375,0.43634033203125,0.2587890625,-0.68023681640625,12.72897813819685,60.164301128912825,-96.85617090516719,0.8930708613313942,,,,3,0,3,3
1788940061.880758,1028460044.0,-8.3515625,0.98828125,4.75390625,-0.06640625,-0.025390625,0.04296875,12.875,-13.3125,-34.75,12.875,-13.3125,-34.75,0.11055462486980161,-0.4906211780316388,0.12745775975254175,0.854881894805129,12.688389308086359,60.11513698232498,172.62529944063039,0.52935791015625,0.4361572265625,0.2587890625,-0.68011474609375,12.736103186455363,60.14154780788745,-96.81298872506068,0.9310692015854691,,,,3,0,3,3
1788940061.892394,1028464974.0,-8.39453125,0.9140625,4.75390625,-0.06640625,-0.025390625,0.04296875,12.875,-13.3125,-34.75,12.875,-13.3125,-34.75,0.11050004168696417,-0.4905728693705164,0.127577304417917,0.8548988431517589,12.718150353551755,60.108989815277944,172.64923761870014,0.52935791015625,0.4361572265625,0.2587890625,-0.68011474609375,12.736103186455363,60.14154780788745,-96.81298872506068,0.934933821262523,,,,3,0,3,3
1788940061.8943472,1028468080.0,-8.39453125,0.875,4.71484375,-0.056640625,-0.0234375,0.052734375,13.8125,-9.9375,-33.9375,13.8125,-9.9375,-33.9375,0.1104171304035079,-0.49055177274882655,0.1273882462929222,0.8549498524901049,12.68951786318938,60.1033646455719,172.6435024848107,0.52935791015625,0.4361572265625,0.2587890625,-0.68011474609375,12.736103186455363,60.14154780788745,-96.81298872506068,0.9236895514086763,,,,3,0,3,3
1788940061.8943472,1028471686.0,-8.43359375,0.875,4.71484375,-0.060546875,-0.01953125,0.05078125,13.8125,-9.9375,-33.9375,13.8125,-9.9375,-33.9375,0.11032033785768867,-0.4905432550356199,0.12716113842914853,0.8550010426118948,12.65495249149779,60.098868968945304,172.63631010906616,0.5296630859375,0.43597412109375,0.2587890625,-0.67999267578125,12.743196793315233,60.118820498375236,-96.769874080504,0.9436771292134273,,,,3,0,3,3
1788940061.9027896,1028476169.0,-8.47265625,0.875,4.640625,-0.03515625,-0.015625,0.05078125,13.8125,-9.9375,-33.9375,13.8125,-9.9375,-33.9375,0.11022522529928416,-0.4905782691494808,0.12693752298325928,0.8550264480148531,12.621260261769981,60.100169546350045,172.6298225828864,0.5296630859375,0.43597412109375,0.2587890625,-0.67999267578125,12.743196793315233,60.118820498375236,-96.769874080504,0.9310072914506956,,,,3,0,3,3
1788940061.9138572,1028480352.0,-8.51171875,0.875,4.6796875,-0.0390625,-0.013671875,0.048828125,12.1875,-11.375,-34.625,12.1875,-11.375,-34.625,0.11021478029778325,-0.4906598580806796,0.12682416283194348,0.8549977997598213,12.600404890105422,60.109799302968746,172.61996321967155,0.5299072265625,0.4359130859375,0.2587890625,-0.67987060546875,12.764201606777265,60.111568034403135,-96.72879538643959,0.5999168742019212,,,,3,0,3,3
1788940061.911904,1028484305.0,-8.54296875,0.875,4.75390625,-0.0390625,-0.013671875,0.048828125,12.1875,-11.375,-34.625,12.1875,-11.375,-34.625,0.11023080218500188,-0.49070565737861316,0.12668876367717385,0.8549895234587516,12.571821967401654,60.11490540878703,172.60178590807786,0.5299072265625,0.4359130859375,0.2587890625,-0.67987060546875,12.764201606777265,60.111568034403135,-96.72879538643959,0.5927756095970442,,,,3,0,3,3
1788940061.9138572,1028487888.0,-8.58203125,0.875,4.71484375,-0.025390625,-0.00390625,0.05078125,12.8125,-13.375,-35.1875,12.8125,-13.375,-35.1875,0.11020949523787202,-0.4907388551957582,0.12682429588571884,0.8549531221848727,12.601678157586479,60.12013973125277,172.62216130219647,0.5299072265625,0.4359130859375,0.2587890625,-0.67987060546875,12.764201606777265,60.111568034403135,-96.72879538643959,0.5994205799474868,,,,3,0,3,3
1788940061.9252908,1028491594.0,-8.578125,0.875,4.6796875,-0.029296875,0.001953125,0.046875,12.8125,-13.375,-35.1875,12.8125,-13.375,-35.1875,0.11018484876800116,-0.4907913114678668,0.1269509052960147,0.8549073957652643,12.63029419094659,60.1277841947007,172.64245408038784,0.5301513671875,0.43585205078125,0.25872802734375,-0.67974853515625,12.79288030033955,60.09688208201905,-96.67983475716322,0.5301765535787609,,,,3,0,3,3
1788940061.9277594,1028495000.0,-8.58203125,0.875,4.75390625,-0.02734375,0.01171875,0.037109375,12.8125,-13.375,-35.1875,12.8125,-13.375,-35.1875,0.11018688292604222,-0.4908399026019983,0.12707192027207717,0.8548612565341059,12.654729907565295,60.13525927942316,172.6567631115333,0.5301513671875,0.43585205078125,0.25872802734375,-0.67974853515625,12.79288030033955,60.09688208201905,-96.67983475716322,0.5393579732730087,,,,3,0,3,3
1788940061.9311097,1028499883.0,-8.6171875,0.875,4.6796875,-0.029296875,0.017578125,0.03125,12.25,-11.0,-38.0625,12.25,-11.0,-38.0625,0.1100980760449131,-0.49095385374460215,0.12682405149014678,0.8548440718096819,12.616087496424477,60.14685978815417,172.6473338040089,0.5302734375,0.43585205078125,0.2587890625,-0.6795654296875,12.807735925541866,60.09323708815699,-96.63130474651993,1.1994683387511336,,,,3,0,3,3
1788940061.9291565,1028504966.0,-8.6171875,0.875,4.6796875,-0.033203125,0.01171875,0.02734375,12.25,-11.0,-38.0625,12.25,-11.0,-38.0625,0.1100110396504382,-0.49106243152431456,0.12655121662079719,0.8548333457886712,12.572174734174322,60.15756536097236,172.63456404190205,0.5302734375,0.43585205078125,0.2587890625,-0.6795654296875,12.807735925541866,60.09323708815699,-96.63130474651993,1.1888866364161,,,,3,0,3,3
1788940061.9311097,1028506919.0,-8.6171875,0.875,4.640625,-0.033203125,0.01171875,0.02734375,15.875,-10.5,-39.875,15.875,-10.5,-39.875,0.10997431216492917,-0.4911010197411298,0.1264447456554625,0.8548316590821836,12.555317839769693,60.16120426990706,172.6300694804315,0.5302734375,0.43585205078125,0.2587890625,-0.6795654296875,12.807735925541866,60.09323708815699,-96.63130474651993,1.1849032514164404,,,,3,0,3,3
1788940061.9449484,1028514502.0,-8.6171875,0.875,4.640625,-0.0234375,0.009765625,0.029296875,15.875,-10.5,-39.875,15.875,-10.5,-39.875,0.10984427642681406,-0.49123968474120905,0.12606589724827272,0.8548246584081528,12.495255960658785,60.17434346938786,172.6139455470891,0.53045654296875,0.43585205078125,0.25885009765625,-0.679443359375,12.825020535453902,60.09934141771932,-96.59976078731646,0.7783677865225228,,,,3,0,3,3
1788940061.9469016,1028518885.0,-8.6171875,0.875,4.640625,-0.01171875,0.005859375,0.01953125,15.875,-10.5,-39.875,15.875,-10.5,-39.875,0.10980064876975185,-0.4913128409089918,0.12585759285844675,0.8548189142780797,12.459012706548618,60.18156532346852,172.5994857853328,0.53045654296875,0.43585205078125,0.25885009765625,-0.679443359375,12.825020535453902,60.09934141771932,-96.59976078731646,0.7697546377688842,,,,3,0,3,3
1788940061.9469016,1028522891.0,-8.6171875,0.875,4.640625,0.0,0.0,0.021484375,15.875,-10.5,-39.875,15.875,-10.5,-39.875,0.10977014986152626,-0.49136684377200834,0.12568799738172098,0.8548167443113672,12.42887962756647,60.186783424451015,172.58662881423493,0.530517578125,0.4359130859375,0.25885009765625,-0.67938232421875,12.84449983955244,60.10639076088033,-96.58099814576559,0.3572504031567527,,,,3,0,3,3
1788940061.9469016,1028526950.0,-8.66015625,0.875,4.6015625,-0.001953125,-0.005859375,0.009765625,15.375,-11.625,-41.0625,15.375,-11.625,-41.0625,0.10976732757259706,-0.4914477826556166,0.12552329331078493,0.854794778620496,12.396766028090383,60.19599471351872,172.5692039507141,0.530517578125,0.4359130859375,0.25885009765625,-0.67938232421875,12.84449983955244,60.10639076088033,-96.58099814576559,0.34919528115845977,,,,3,0,2,3
1788940061.9654534,1028530857.0,-8.6171875,0.875,4.640625,0.01171875,-0.001953125,0.00390625,15.375,-11.625,-41.0625,15.375,-11.625,-41.0625,0.10978762051154323,-0.4915155385322669,0.1253699222582778,0.8547757228400338,12.364170812946773,60.203894357747494,172.5483033367968,0.53057861328125,0.43585205078125,0.25885009765625,-0.67938232421875,12.840486043529468,60.100489798547656,-96.57948970977931,0.0,,,,3,0,2,3
1788940061.9664216,1028535339.0,-8.578125,0.875,4.640625,0.005859375,-0.00390625,0.001953125,15.375,-11.625,-41.0625,15.375,-11.625,-41.0625,0.10980827947708525,-0.4915849596489883,0.12517590275841375,0.8547615822987139,12.323370240651364,60.21166053467765,172.52261900203246,0.53057861328125,0.43585205078125,0.25885009765625,-0.67938232421875,12.840486043529468,60.100489798547656,-96.57948970977931,0.0,,,,3,0,2,3
1788940061.9683747,1028538593.0,-8.578125,0.875,4.640625,0.005859375,-0.00390625,0.001953125,16.9375,-11.0625,-37.0,16.9375,-11.0625,-37.0,0.10985118603582228,-0.49166126381921665,0.12506735534154592,0.8547280709173446,12.297224281058435,60.22139410895245,172.50251153778763,0.53057861328125,0.43585205078125,0.25885009765625,-0.67938232421875,12.840486043529468,60.100489798547656,-96.57948970977931,0.0,,,,3,0,2,3
1788940061.9683747,1028542299.0,-8.578125,0.875,4.6796875,0.0,-0.013671875,-0.0078125,16.9375,-11.0625,-37.0,16.9375,-11.0625,-37.0,0.10991748144563476,-0.4917229450580169,0.1249086121697781,0.8547072780677247,12.258196327762013,60.22908731195719,172.47170848862712,0.530517578125,0.43585205078125,0.2587890625,-0.67938232421875,12.842203048938593,60.08941614264727,-96.57266691932738,1.1119004451380494,,,,3,0,2,3
1788940061.9783807,1028545905.0,-8.5390625,0.875,4.640625,0.009765625,-0.009765625,-0.009765625,16.9375,-11.0625,-37.0,16.9375,-11.0625,-37.0,0.10998967635186388,-0.49179559415493007,0.12477678483119387,0.8546754463730672,12.223960550342417,60.238540896254555,172.4429859320237,0.530517578125,0.43585205078125,0.2587890625,-0.67938232421875,12.842203048938593,60.08941614264727,-96.57266691932738,1.1144198103559961,,,,3,0,2,3
1788940061.9848318,1028554164.0,-8.6171875,0.9140625,4.640625,0.01171875,-0.015625,-0.013671875,12.9375,-12.125,-36.0,12.9375,-12.125,-36.0,0.11020431177486327,-0.49196393238462016,0.12492369741754111,0.8545294428645628,12.230066108996438,60.265103548933986,172.4195531744047,0.530517578125,0.435791015625,0.2587890625,-0.67950439453125,12.825153374176212,60.092112076336804,-96.60841104211245,0.0,,,,3,0,3,3
1788940061.9857268,1028557747.0,-8.6171875,0.9140625,4.640625,0.01171875,-0.01953125,-0.01953125,12.75,-12.4375,-35.375,12.75,-12.4375,-35.375,0.11030692986417154,-0.4920106282261139,0.1250249936140346,0.8544745016138843,12.238988132975411,60.273621701844434,172.41151627769398,0.530517578125,0.435791015625,0.2587890625,-0.67950439453125,12.825153374176212,60.092112076336804,-96.60841104211245,0.0,,,,3,0,3,3
1788940061.994581,1028562430.0,-8.6171875,0.953125,4.640625,0.01171875,-0.017578125,-0.021484375,12.75,-12.4375,-35.375,12.75,-12.4375,-35.375,0.11042986084460597,-0.49206888572388674,0.125171435689012,0.8544036336672762,12.254740897596527,60.284357622204105,172.4048423189101,0.5303955078125,0.435791015625,0.25872802734375,-0.67962646484375,12.813839802925182,60.08963787037611,-96.63884360103977,0.0,,,,3,0,3,3
1788940062.0000546,1028565813.0,-8.65625,0.98828125,4.6796875,0.009765625,-0.021484375,-0.013671875,13.5,-12.375,-34.5625,13.5,-12.375,-34.5625,0.11049738151766897,-0.4920893007481033,0.12530014869551087,0.8543642791595772,12.273025600036396,60.28915501312659,172.40664920378376,0.5303955078125,0.435791015625,0.25872802734375,-0.67962646484375,12.813839802925182,60.08963787037611,-96.63884360103977,0.0,,,,3,0,3,3
1788940062.0000546,1028570166.0,-8.66015625,0.953125,4.71484375,0.009765625,-0.021484375,-0.013671875,13.5,-12.375,-34.5625,13.5,-12.375,-34.5625,0.11060164418306528,-0.4921126108701163,0.12546377683203708,0.8543133472149672,12.294139789563014,60.29516989853285,172.40524352008805,0.5303955078125,0.435791015625,0.25872802734375,-0.67962646484375,12.813839802925182,60.08963787037611,-96.63884360103977,0.0,,,,3,0,3,3
1788940062.0000546,1028573872.0,-8.66015625,0.953125,4.71484375,0.01171875,-0.015625,-0.017578125,13.5,-12.375,-34.5625,13.5,-12.375,-34.5625,0.11069786504884951,-0.4921424719269091,0.1256032513754374,0.8542631873393685,12.311368058271013,60.301723397565375,172.40271690857827,0.5302734375,0.43572998046875,0.2586669921875,-0.67974853515625,12.79257423525636,60.07763504263591,-96.66885844983568,0.6403650539882252,,,,3,0,3,3
1788940062.0000546,1028577655.0,-8.62109375,0.953125,4.71484375,0.00390625,-0.005859375,-0.017578125,12.6875,-11.5625,-35.6875,12.6875,-11.5625,-35.6875,0.11080714463267272,-0.4922518375399293,0.12556932647819896,0.8541909911634099,12.29275898469077,60.31742177315554,172.37842491726116,0.5302734375,0.43572998046875,0.2586669921875,-0.67974853515625,12.79257423525636,60.07763504263591,-96.66885844983568,0.6522875675845411,,,,3,0,3,3
1788940062.0153315,1028581361.0,-8.62109375,0.953125,4.75390625,0.013671875,0.001953125,-0.025390625,12.6875,-11.5625,-35.6875,12.6875,-11.5625,-35.6875,0.11096758109649688,-0.4923573146873573,0.1255249855580583,0.8541158871137432,12.266116109735758,60.33324114921842,172.34263749737235,0.53021240234375,0.4356689453125,0.2586669921875,-0.67987060546875,12.769591639579922,60.07669455066927,-96.70567501721612,0.0,,,,3,0,3,3
1788940062.0153315,1028585821.0,-8.66015625,0.98828125,4.75390625,0.0078125,0.009765625,-0.029296875,13.6875,-12.5625,-35.625,13.6875,-12.5625,-35.625,0.11108927884881047,-0.49242820382445995,0.12569517628270918,0.8540341672686906,12.286885781411646,60.345858810936825,172.3391530564412,0.53021240234375,0.4356689453125,0.2586669921875,-0.67987060546875,12.769591639579922,60.07669455066927,-96.70567501721612,0.0,,,,3,0,3,3
1788940062.0153315,1028589197.0,-8.62109375,0.98828125,4.79296875,0.0078125,0.009765625,-0.029296875,13.6875,-12.5625,-35.625,13.6875,-12.5625,-35.625,0.11118859254860887,-0.4924572777564348,0.12583585964930602,0.853983760324575,12.304000311295509,60.35237519899424,172.33614579133902,0.53021240234375,0.4356689453125,0.2586669921875,-0.67987060546875,12.769591639579922,60.07669455066927,-96.70567501721612,0.0,,,,3,0,3,3
1788940062.0251992,1028593480.0,-8.62109375,0.953125,4.79296875,0.005859375,0.013671875,-0.029296875,13.6875,-12.5625,-35.625,13.6875,-12.5625,-35.625,0.11133348759271842,-0.49250710834545985,0.12600072264213444,0.8539118342447862,12.320886860631676,60.36250431163513,172.3271416845821,0.530029296875,0.43572998046875,0.25872802734375,-0.679931640625,12.75043125549415,60.08888965227851,-96.73542908759033,0.4494036966979284,,,,3,0,3,3
1788940062.0316038,1028601169.0,-8.54296875,0.98828125,4.75390625,-0.001953125,0.0234375,-0.033203125,12.25,-12.0,-38.5,12.25,-12.0,-38.5,0.11144110067348759,-0.4926156588053598,0.12556663437801052,0.8538991240839997,12.2217229986292,60.37446718326958,172.25631997390863,0.52984619140625,0.43572998046875,0.2587890625,-0.67999267578125,12.721304285466397,60.09154616025123,-96.76478835525243,1.1048945711740414,,,,3,0,3,3
1788940062.0296507,1028605122.0,-8.54296875,0.9140625,4.75390625,-0.001953125,0.0234375,-0.033203125,12.25,-12.0,-38.5,12.25,-12.0,-38.5,0.11153240406689427,-0.49268034279742334,0.12534647240841712,0.8538822310593179,12.167230260873378,60.38230806368786,172.21315802363117,0.52984619140625,0.43572998046875,0.2587890625,-0.67999267578125,12.721304285466397,60.09154616025123,-96.76478835525243,1.10691680165017,,,,3,0,3,3
1788940062.0466013,1028609305.0,-8.46875,0.875,4.75390625,-0.00390625,0.021484375,-0.033203125,16.375,-12.125,-41.0,16.375,-12.125,-41.0,0.11161535703374398,-0.4927200778825702,0.12511344989603063,0.8538826392313742,12.110927774035508,60.386602349303026,172.16982579766668,0.52984619140625,0.43572998046875,0.2587890625,-0.67999267578125,12.721304285466397,60.09154616025123,-96.76478835525243,1.1082424829035218,,,,3,0,2,3
1788940062.044327,1028612511.0,-8.43359375,0.875,4.75390625,-0.005859375,0.017578125,-0.029296875,16.375,-12.125,-41.0,16.375,-12.125,-41.0,0.11167157701930122,-0.49273617814143333,0.12493801542171493,0.8538916851328856,12.069166182235787,60.38791209387847,172.13826972658148,0.52972412109375,0.43572998046875,0.25897216796875,-0.6800537109375,12.682698157325376,60.1126962809316,-96.80892788036624,0.758661937037056,,,,3,0,2,3
1788940062.0466013,1028617071.0,-8.39453125,0.875,4.71484375,0.0,0.021484375,-0.02734375,15.125,-11.0625,-40.375,15.125,-11.0625,-40.375,0.11172002856640106,-0.4927804099791053,0.12469483699264661,0.8538953685231726,12.014807714973003,60.39219567741456,172.1006801289682,0.52972412109375,0.43572998046875,0.25897216796875,-0.6800537109375,12.682698157325376,60.1126962809316,-96.80892788036624,0.7592267265060576,,,,3,0,2,3
1788940062.0446482,1028624854.0,-8.43359375,0.875,4.75390625,-0.001953125,0.01953125,-0.021484375,15.125,-11.0625,-40.375,15.125,-11.0625,-40.375,0.11178160930023591,-0.49283701454471907,0.12428742829449803,0.8539140378778404,11.925877934413345,60.3967589969188,172.04138831958434,0.529541015625,0.43572998046875,0.2591552734375,-0.68011474609375,12.638077640669326,60.13021004836683,-96.85426301258063,0.8739927034610397,,,,3,0,2,3
1788940062.0466013,1028628960.0,-8.43359375,0.875,4.83203125,0.009765625,0.021484375,-0.017578125,15.125,-11.0625,-40.375,15.125,-11.0625,-40.375,0.11181921920424953,-0.49284377273036073,0.12410934049040172,0.8539311151963571,11.885664865150215,60.39651500124232,172.01311674716277,0.529541015625,0.43572998046875,0.2591552734375,-0.68011474609375,12.638077640669326,60.13021004836683,-96.85426301258063,0.8747879254239345,,,,3,0,2,3
1788940062.0625923,1028632266.0,-8.43359375,0.875,4.79296875,0.01171875,0.021484375,-0.02734375,15.125,-11.0625,-40.375,15.125,-11.0625,-40.375,0.11186387837934017,-0.4928589367250603,0.12395591328907302,0.8539387991916323,11.849654132143467,60.39770172887579,171.9864154812703,0.5294189453125,0.435791015625,0.25921630859375,-0.68011474609375,12.628337407572854,60.1399187022424,-96.86494081758913,1.1562876222665943,,,,3,0,2,3
1788940062.0578368,1028636249.0,-8.3515625,0.875,4.87109375,0.01171875,0.03125,-0.033203125,16.6875,-10.4375,-36.3125,16.6875,-10.4375,-36.3125,0.1119460155338927,-0.49284398842269106,0.12381198423445682,0.8539575429970898,11.81106812173286,60.39550774398174,171.95298549590672,0.5294189453125,0.435791015625,0.25921630859375,-0.68011474609375,12.628337407572854,60.1399187022424,-96.86494081758913,1.1591378293165562,,,,3,0,2,3
1788940062.0644774,1028640232.0,-8.3125,0.875,4.83203125,0.00390625,0.0390625,-0.044921875,16.6875,-10.4375,-36.3125,16.6875,-10.4375,-36.3125,0.11203758311539809,-0.49284849784207824,0.12364291525531299,0.8539674277463015,11.766427640749122,60.3957669905426,171.9149511157608,0.52923583984375,0.4359130859375,0.25933837890625,-0.68017578125,12.611249248797685,60.16910821440682,-96.9032820121611,0.7433522159574947,,,,3,0,2,3
1788940062.0758479,1028644385.0,-8.27734375,0.875,4.83203125,0.00390625,0.0390625,-0.044921875,16.6875,-10.4375,-36.3125,16.6875,-10.4375,-36.3125,0.1121312321001583,-0.4928472493164954,0.12347395772628206,0.8539803026957197,11.721541184609444,60.39528283937706,171.8764497479056,0.52923583984375,0.4359130859375,0.25933837890625,-0.68017578125,12.611249248797685,60.16910821440682,-96.9032820121611,0.7500191474219904,,,,3,0,2,3
1788940062.0784318,1028648368.0,-8.23828125,0.875,4.79296875,0.0,0.046875,-0.044921875,13.0,-14.5,-36.25,13.0,-14.5,-36.25,0.11226234672273717,-0.49289890002207276,0.12362284908950173,0.8539117232175285,11.736638541215275,60.405307408344775,171.86818692707217,0.52923583984375,0.4359130859375,0.25933837890625,-0.68017578125,12.611249248797685,60.16910821440682,-96.9032820121611,0.76128708587242,,,,3,0,2,3
1788940062.0849009,1028652074.0,-8.23828125,0.875,4.75390625,0.009765625,0.0546875,-0.0546875,13.0,-14.5,-36.25,13.0,-14.5,-36.25,0.11240655321843535,-0.49296752429872065,0.12377134667867973,0.8538316230508727,11.75022569816763,60.41775403157714,171.85744573863803,0.52899169921875,0.43603515625,0.25958251953125,-0.68023681640625,12.572631912983967,60.20955609328811,-96.958824891203,0.0,,,,3,0,2,3
1788940062.084598,1028655857.0,-8.1953125,0.8359375,4.79296875,0.021484375,0.060546875,-0.060546875,12.6875,-11.5625,-35.6875,12.6875,-11.5625,-35.6875,0.11256913909369197,-0.49296701506073404,0.12371625527783477,0.8538184813915921,11.72029513352041,60.41938092998415,171.81844437457696,0.52899169921875,0.43603515625,0.25958251953125,-0.68023681640625,12.572631912983967,60.20955609328811,-96.958824891203,0.0,,,,3,0,3,3
1788940062.086573,1028660010.0,-8.23828125,0.875,4.79296875,0.021484375,0.060546875,-0.060546875,12.6875,-11.5625,-35.6875,12.6875,-11.5625,-35.6875,0.11274024338056873,-0.4929586665510868,0.12367944729682796,0.8538060581367501,11.693026537913811,60.42025523953859,171.77978956970665,0.52899169921875,0.43603515625,0.25958251953125,-0.68023681640625,12.572631912983967,60.20955609328811,-96.958824891203,0.0,,,,3,0,3,3
1788940062.086573,1028663993.0,-8.1953125,0.875,4.83203125,0.021484375,0.06640625,-0.064453125,12.6875,-11.5625,-35.6875,12.6875,-11.5625,-35.6875,0.11289691998160321,-0.4929590482427524,0.1236439824381473,0.8537902715662098,11.667736175155543,60.4220932619418,171.74427086796874,0.52862548828125,0.43621826171875,0.25982666015625,-0.6802978515625,12.531855625405392,60.252294169704605,-97.01729753944059,0.20842629250769149,,,,3,0,3,3
1788940062.101823,1028667775.0,-8.27734375,0.875,4.83203125,0.03125,0.078125,-0.076171875,12.8125,-12.375,-34.6875,12.8125,-12.375,-34.6875,0.1131015239649919,-0.49300864287168905,0.12377354490580439,0.8537157799361931,11.670384775025719,60.432674169248735,171.71897670077144,0.52862548828125,0.43621826171875,0.25982666015625,-0.6802978515625,12.531855625405392,60.252294169704605,-97.01729753944059,0.26458296671618,,,,3,0,3,3
1788940062.106566,1028671682.0,-8.3125,0.953125,4.79296875,0.03125,0.080078125,-0.091796875,12.8125,-12.375,-34.6875,12.8125,-12.375,-34.6875,0.11331125459408202,-0.49308799031705575,0.12392660479767499,0.8536199329975391,11.677300345627684,60.44748939087073,171.6957106161896,0.52813720703125,0.4364013671875,0.26007080078125,-0.680419921875,12.47533086955395,60.29387000570359,-97.09647319367751,0.9308474989583891,,,,3,0,3,3
1788940062.104176,1028675664.0,-8.27734375,0.98828125,4.75390625,0.03515625,0.0859375,-0.103515625,12.8125,-12.375,-34.6875,12.8125,-12.375,-34.6875,0.11353272633445323,-0.4931876229108549,0.1240870020079326,0.8535096394249392,11.684413582184083,60.465223456783704,171.67115487792952,0.52813720703125,0.4364013671875,0.26007080078125,-0.680419921875,12.47533086955395,60.29387000570359,-97.09647319367751,0.9476629841180674,,,,3,0,3,3
1788940062.108603,1028679818.0,-8.27734375,1.02734375,4.75390625,0.03515625,0.0859375,-0.103515625,13.9375,-12.75,-33.875,13.9375,-12.75,-33.875,0.11375241211203822,-0.4933151494581514,0.12426512842067026,0.8533807649064802,11.695423178716334,60.48680101985759,171.6493183627438,0.52813720703125,0.4364013671875,0.26007080078125,-0.680419921875,12.47533086955395,60.29387000570359,-97.09647319367751,0.9662237149577251,,,,3,0,3,3
1788940062.1132905,1028685200.0,-8.3125,1.02734375,4.75390625,0.029296875,0.080078125,-0.11328125,13.9375,-12.75,-33.875,13.9375,-12.75,-33.875,0.11405425734741724,-0.49347716521016666,0.12446873945657827,0.853217115800637,11.702167785566276,60.514316015474016,171.6143348875612,0.527587890625,0.4366455078125,0.26043701171875,-0.68060302734375,12.40328783324206,60.36248577110509,-97.2119138416507,0.0,,,,3,0,3,3
1788940062.1161335,1028687107.0,-8.3515625,1.02734375,4.75390625,0.0234375,0.083984375,-0.125,13.9375,-12.75,-33.875,13.9375,-12.75,-33.875,0.11416769998021689,-0.493541801766551,0.12453133575789889,0.8531554211306445,11.701895798167277,60.52501937974534,171.5995825336013,0.527587890625,0.4366455078125,0.26043701171875,-0.68060302734375,12.40328783324206,60.36248577110509,-97.2119138416507,0.0,,,,3,0,3,3
1788940062.1251612,1028690813.0,-8.3515625,0.98828125,4.75390625,0.029296875,0.0859375,-0.123046875,13.9375,-12.75,-33.875,13.9375,-12.75,-33.875,0.11439844399762225,-0.49366856013651766,0.12466316244600505,0.8530319130446535,11.702218034537962,60.5462164687597,171.5700420437802,0.52691650390625,0.43682861328125,0.26080322265625,-0.6807861328125,12.308861349351988,60.414136116414866,-97.32984504452533,1.1557970137754243,,,,3,0,3,3
1788940062.1263232,1028695196.0,-8.39453125,1.02734375,4.79296875,0.0234375,0.08203125,-0.11328125,13.9375,-12.75,-33.875,13.9375,-12.75,-33.875,0.11463919578625292,-0.4938034632981487,0.12481783841126616,0.8528988812506287,11.706010461422988,60.568859717192346,171.5412442814592,0.52691650390625,0.43682861328125,0.26080322265625,-0.6807861328125,12.308861349351988,60.414136116414866,-97.32984504452533,1.1720885827845575,,,,3,0,3,3
1788940062.1302583,1028698949.0,-8.3515625,1.02734375,4.75390625,0.0234375,0.08203125,-0.11328125,13.125,-11.8125,-37.0,13.125,-11.8125,-37.0,0.114793864070631,-0.4938328150684321,0.12480874442379129,0.8528624137858802,11.686250363776727,60.5747572343379,171.5093726281764,0.52691650390625,0.43682861328125,0.26080322265625,-0.6807861328125,12.308861349351988,60.414136116414866,-97.32984504452533,1.1802561841135446,,,,3,0,3,3
1788940062.1263232,1028704732.0,-8.43359375,1.02734375,4.71484375,0.01953125,0.083984375,-0.103515625,13.125,-11.8125,-37.0,13.125,-11.8125,-37.0,0.11495511070050206,-0.49390278104797886,0.12488706552414813,0.8527887113826464,11.683567816473133,60.5869812297465,171.48687625352096,0.52630615234375,0.43707275390625,0.26116943359375,-0.68096923828125,12.230012010387906,60.479140138838616,-97.44757827817777,1.0949008934185562,,,,3,0,3,3
1788940062.1302583,1028707038.0,-8.35546875,1.02734375,4.640625,0.0234375,0.083984375,-0.0859375,13.125,-11.8125,-37.0,13.125,-11.8125,-37.0,0.11498884346914226,-0.49394705015434903,0.12495684817671474,0.8527483002710633,11.693934337996636,60.593988654432515,171.48876212764733,0.52630615234375,0.43707275390625,0.26116943359375,-0.68096923828125,12.230012010387906,60.479140138838616,-97.44757827817777,1.0985533802349439,,,,3,0,3,3
1788940062.1494439,1028710744.0,-8.35546875,0.98828125,4.640625,0.01953125,0.076171875,-0.060546875,13.125,-11.8125,-37.0,13.125,-11.8125,-37.0,0.11502217025434071,-0.49396876879887097,0.125038461007735,0.8527192615803434,11.70665855365902,60.5981263984752,171.49189948247738,0.52587890625,0.437255859375,0.26153564453125,-0.68109130859375,12.16271601070825,60.53944407160137,-97.54333026316476,0.5269760650220264,,,,3,0,3,3
1788940062.1445394,1028715174.0,-8.31640625,0.953125,4.6796875,0.01953125,0.076171875,-0.060546875,13.125,-11.8125,-37.0,13.125,-11.8125,-37.0,0.1151446509865916,-0.49398578622735445,0.12499252175489381,0.8526996082207796,11.683117152812946,60.60158762210242,171.4620069473586,0.52587890625,0.437255859375,0.26153564453125,-0.68109130859375,12.16271601070825,60.53944407160137,-97.54333026316476,0.5368659042281287,,,,3,0,3,3
1788940062.150529,1028718480.0,-8.31640625,0.953125,4.6796875,0.01953125,0.0703125,-0.0390625,15.625,-10.25,-41.25,15.625,-10.25,-41.25,0.11517586338118037,-0.4940748966656811,0.1248508832676924,0.8526645142882828,11.651113311207258,60.61238220705793,171.43990397164322,0.52587890625,0.437255859375,0.26153564453125,-0.68109130859375,12.16271601070825,60.53944407160137,-97.54333026316476,0.5345632319332176,,,,3,0,2,3
1788940062.1524029,1028722186.0,-8.3125,0.953125,4.71484375,0.0234375,0.0703125,-0.01953125,15.625,-10.25,-41.25,15.625,-10.25,-41.25,0.11518464721668369,-0.4941614853553983,0.12472032542171883,0.8526322559366466,11.623949502142915,60.62264670672368,171.4235809879448,0.52557373046875,0.4375,0.26177978515625,-0.68109130859375,12.14039871263099,60.589525415932094,-97.58447280474363,0.0,,,,3,0,2,3
1788940062.1524239,1028726569.0,-8.234375,0.98828125,4.6796875,0.0234375,0.0625,0.005859375,15.625,-10.25,-41.25,15.625,-10.25,-41.25,0.11514030064070833,-0.49423561518303016,0.12459758607141372,0.852613223799746,11.604526960596528,60.630621636015626,171.41874680511768,0.52557373046875,0.4375,0.26177978515625,-0.68109130859375,12.14039871263099,60.589525415932094,-97.58447280474363,0.0,,,,3,0,2,3
1788940062.164277,1028730552.0,-8.23828125,0.953125,4.71484375,0.029296875,0.068359375,0.015625,16.0625,-10.1875,-40.5,16.0625,-10.1875,-40.5,0.11509889206251639,-0.49430215508199676,0.12450959433182884,0.8525930948855956,11.591772045452581,60.637981531667116,171.41734440757807,0.525390625,0.437744140625,0.26190185546875,-0.68096923828125,12.153349006117198,60.61965329534413,-97.57021532368354,1.0134646459903072,,,,3,0,2,3
1788940062.1662817,1028735535.0,-8.27734375,0.9140625,4.71484375,0.025390625,0.06640625,0.029296875,16.0625,-10.1875,-40.5,16.0625,-10.1875,-40.5,0.11502251055589385,-0.4943877716117927,0.12439937899701003,0.852569849250666,11.578669166103078,60.64717123258584,171.42054456381493,0.525390625,0.437744140625,0.26190185546875,-0.68096923828125,12.153349006117198,60.61965329534413,-97.57021532368354,1.0080884833414796,,,,3,0,2,3
1788940062.1707087,1028737511.0,-8.1953125,0.9140625,4.75390625,0.025390625,0.06640625,0.029296875,16.875,-11.5625,-37.4375,16.875,-11.5625,-37.4375,0.11500826495433707,-0.4943775135908552,0.12441928575254022,0.8525748145357946,11.584336806968022,60.64582154487187,171.42566774937643,0.525390625,0.437744140625,0.26190185546875,-0.68096923828125,12.153349006117198,60.61965329534413,-97.57021532368354,1.0077323491273145,,,,3,0,2,3
1788940062.1753528,1028742394.0,-8.1953125,0.9140625,4.79296875,0.037109375,0.08203125,0.02734375,16.875,-11.5625,-37.4375,16.875,-11.5625,-37.4375,0.11498627275747048,-0.49438144815129714,0.1244970221301169,0.852564151417302,11.602687712972207,60.64682328098593,171.4393228670811,0.52532958984375,0.4381103515625,0.26190185546875,-0.6807861328125,12.217973899429193,60.65545002564063,-97.5196111262749,0.9598894939827747,,,,3,0,2,3
1788940062.176789,1028745977.0,-8.23828125,0.953125,4.75390625,0.03515625,0.09375,0.025390625,12.5625,-12.125,-36.375,12.5625,-12.125,-36.375,0.1149774316260021,-0.49439539541929844,0.12465719523316363,0.8525338508713214,11.636255294356898,60.65014906962621,171.46017069601936,0.52532958984375,0.4381103515625,0.26190185546875,-0.6807861328125,12.217973899429193,60.65545002564063,-97.5196111262749,0.9618433247923259,,,,3,0,3,3
1788940062.1858168,1028750083.0,-8.27734375,0.953125,4.75390625,0.037109375,0.1015625,0.015625,12.5625,-12.125,-36.375,12.5625,-12.125,-36.375,0.11498829112934913,-0.494427868250442,0.12483954523927307,0.8524868702478221,11.672092703825562,60.65641006853865,171.4798622884966,0.525146484375,0.43853759765625,0.26202392578125,-0.68060302734375,12.264668479085493,60.70850654011738,-97.48841344864829,0.9852073158978163,,,,3,0,3,3
1788940062.1838636,1028755013.0,-8.3125,0.98828125,4.75390625,0.037109375,0.1015625,0.015625,12.5625,-12.125,-36.375,12.5625,-12.125,-36.375,0.11498384839528623,-0.49447174304862695,0.12508831062636472,0.8524255536287639,11.72325542529649,60.66462649997273,171.51062180137208,0.525146484375,0.43853759765625,0.26202392578125,-0.68060302734375,12.264668479085493,60.70850654011738,-97.48841344864829,0.9887684656701856,,,,3,0,3,3
1788940062.187827,1028757419.0,-8.31640625,1.06640625,4.83203125,0.044921875,0.12109375,0.00390625,12.6875,-12.0625,-35.6875,12.6875,-12.0625,-35.6875,0.1149839660417522,-0.49451659813956866,0.12522230822180203,0.8523798421134685,11.750617666403137,60.671890515039465,171.5269126997355,0.525146484375,0.43853759765625,0.26202392578125,-0.68060302734375,12.264668479085493,60.70850654011738,-97.48841344864829,0.9910072564987629,,,,3,0,3,3
