pc_unix,dev_us,ax,ay,az,gx,gy,gz,mx_raw,my_raw,mz_raw,mx,my,mz,host_qw,host_qx,host_qy,host_qz,host_roll,host_pitch,host_yaw,chip_qw,chip_qx,chip_qy,chip_qz,chip_roll,chip_pitch,chip_yaw,diff_deg,rel_roll,rel_pitch,rel_yaw,cal_acc,cal_gyr,cal_mag,cal_rv
1788938140.3120658,3401832337.0,-9.6953125,1.02734375,0.6953125,0.001953125,-0.029296875,0.005859375,29.125,-5.6875,-32.0,29.125,-5.6875,-32.0,-0.0024795449289889073,-0.6826130667253227,0.06937358666236319,0.7274754693227771,60.73694206362277,83.13209973392668,-124.6951635456722,0.5164794921875,0.53216552734375,0.43414306640625,-0.51141357421875,61.80451767370808,83.10381061983813,-33.51616995313378,0.9807279102020936,,,,3,0,3,3
1788938140.3081307,3401836620.0,-9.69921875,1.02734375,0.6171875,-0.001953125,-0.0234375,0.0078125,29.125,-5.6875,-32.0,29.125,-5.6875,-32.0,-0.0025049405387122577,-0.6825152751043643,0.0692279886049428,0.7275809990068635,60.57029312854246,83.13160867766092,-124.8479180280576,0.5164794921875,0.53216552734375,0.43414306640625,-0.51141357421875,61.80451767370808,83.10381061983813,-33.51616995313378,0.9844339495777961,,,,3,0,3,3
1788938140.3120658,3401839296.0,-9.73046875,1.02734375,0.6953125,-0.001953125,-0.0234375,0.0078125,29.125,-6.25,-32.375,29.125,-6.25,-32.375,-0.0025152529510832815,-0.6824214936197863,0.06926194064961669,0.7276656939321663,60.48511650978965,83.12085128544666,-124.9350463048306,0.5164794921875,0.53216552734375,0.43414306640625,-0.51141357421875,61.80451767370808,83.10381061983813,-33.51616995313378,0.9848501115007355,,,,3,0,3,3
1788938140.3120658,3401843979.0,-9.7265625,0.98828125,0.65625,0.0078125,-0.017578125,0.005859375,29.125,-6.25,-32.375,29.125,-6.25,-32.375,-0.002460178771026311,-0.6822695095832333,0.06930647908468872,0.7278041465740304,60.31976312515806,83.10897274302758,-125.10852865520545,0.51654052734375,0.5321044921875,0.43408203125,-0.511474609375,61.70780679728759,83.1002171511361,-33.61804900254744,0.9354786518834846,,,,3,0,3,3
1788938140.3427896,3401847562.0,-9.7265625,0.98828125,0.6171875,0.0078125,-0.01953125,0.01171875,30.0625,-4.9375,-30.125,30.0625,-4.9375,-30.125,-0.002443540491280077,-0.6822358642849539,0.06916039019778444,0.7278496376456607,60.21056055072992,83.11667358550726,-125.20718934726784,0.51654052734375,0.5321044921875,0.43408203125,-0.511474609375,61.70780679728759,83.1002171511361,-33.61804900254744,0.9403557554092103,,,,3,0,3,3
1788938140.346802,3401855545.0,-9.7265625,1.02734375,0.578125,-0.01171875,-0.013671875,0.01171875,30.0625,-4.9375,-30.125,30.0625,-4.9375,-30.125,-0.0025029900860316446,-0.6822218097142339,0.0687631373653475,0.7279002461399083,60.03221364739277,83.13695378536765,-125.34836507395028,0.5166015625,0.5321044921875,0.43402099609375,-0.51153564453125,61.68011943427538,83.12644145605866,-33.698709671603204,0.0,,,,3,0,3,3
1788938140.346802,3401859804.0,-9.7265625,1.02734375,0.6171875,-0.01171875,-0.00390625,0.009765625,25.875,-6.8125,-28.125,25.875,-6.8125,-28.125,-0.002537302940059342,-0.6821937391166243,0.06897084338353464,0.7279067846687743,60.107780467688116,83.11889299547167,-125.28693993186882,0.5166015625,0.5321044921875,0.43402099609375,-0.51153564453125,61.68011943427538,83.12644145605866,-33.698709671603204,0.0,,,,3,0,3,3
1788938140.3568773,3401863510.0,-9.73046875,1.06640625,0.578125,-0.017578125,-0.005859375,0.009765625,25.875,-6.8125,-28.125,25.875,-6.8125,-28.125,-0.00258479508420884,-0.6821794825696013,0.06914199102431111,0.7279037419004231,60.18578588367677,83.10344342990211,-125.21902726937451,0.51666259765625,0.53204345703125,0.4339599609375,-0.511474609375,61.607752960410345,83.06093488761252,-33.68419838567665,1.2121976335933218,,,,3,0,3,3
1788938140.3544002,3401866893.0,-9.8046875,1.02734375,0.46484375,-0.017578125,-0.005859375,0.009765625,27.0,-3.3125,-26.625,27.0,-3.3125,-26.625,-0.0026094097668580324,-0.682211707615746,0.06897017019893274,0.7278897530501487,60.150688129336054,83.11553544433178,-125.23812732525954,0.51666259765625,0.53204345703125,0.4339599609375,-0.511474609375,61.607752960410345,83.06093488761252,-33.68419838567665,1.2146616016866143,,,,3,0,3,3
1788938140.3633122,3401871676.0,-9.8046875,1.02734375,0.38671875,-0.0234375,-0.01171875,0.015625,27.0,-3.3125,-26.625,27.0,-3.3125,-26.625,-0.0026641587235860242,-0.6822672465967531,0.06874337980432822,0.7278589521415937,60.12585945872201,83.13107805133328,-125.2400331145346,0.5167236328125,0.53204345703125,0.4339599609375,-0.511474609375,61.62245098103573,83.08610300172693,-33.708924803530685,0.8102095638753447,,,,3,0,3,3
1788938140.3613591,3401875629.0,-9.84765625,1.02734375,0.50390625,-0.0234375,-0.01171875,0.015625,27.0,-3.3125,-26.625,27.0,-3.3125,-26.625,-0.0027084438473896524,-0.6822860665081418,0.06853790645583845,0.727860524523362,60.06678000912742,83.14285714441736,-125.2787834690712,0.5167236328125,0.53204345703125,0.4339599609375,-0.511474609375,61.62245098103573,83.08610300172693,-33.708924803530685,0.815858606090724,,,,3,0,3,3
1788938140.3633122,3401879012.0,-9.84765625,1.02734375,0.50390625,-0.01171875,-0.01171875,0.0078125,27.125,-3.625,-25.9375,27.125,-3.625,-25.9375,-0.0027212385146717006,-0.6823071520306139,0.06836922528610913,0.7278565752829305,60.01669759352484,83.15460984523912,-125.31408605909658,0.5167236328125,0.53204345703125,0.4339599609375,-0.511474609375,61.62245098103573,83.08610300172693,-33.708924803530685,0.8218362422193864,,,,3,0,3,3
1788938140.3781302,3401882718.0,-9.80859375,1.06640625,0.54296875,-0.00390625,-0.01953125,0.015625,27.125,-3.625,-25.9375,27.125,-3.625,-25.9375,-0.002749541354996341,-0.6823066465025093,0.0682009406508084,0.7278727305341106,59.947852241083616,83.16344375223926,-125.3669320279697,0.516845703125,0.531982421875,0.4339599609375,-0.51141357421875,61.595193380480964,83.0759115174215,-33.72135966599402,0.8400416499668378,,,,3,0,3,3
1788938140.3765929,3401887101.0,-9.84765625,1.02734375,0.54296875,-0.017578125,-0.01171875,0.013671875,27.125,-3.625,-25.9375,27.125,-3.625,-25.9375,-0.0027856706212124826,-0.6823189171790475,0.06797730993210628,0.7278820101041079,59.870016408149226,83.17637665703819,-125.42362410641113,0.516845703125,0.531982421875,0.4339599609375,-0.51141357421875,61.595193380480964,83.0759115174215,-33.72135966599402,0.848351992309618,,,,3,0,3,3
1788938140.378546,3401894384.0,-9.8046875,1.02734375,0.50390625,-0.009765625,-0.009765625,0.013671875,27.125,-5.5625,-26.125,27.125,-5.5625,-26.125,-0.0028717949587080704,-0.682405763972863,0.06822954370905883,0.7277766521781128,60.11099843888625,83.16167320976137,-125.19618067526966,0.51690673828125,0.531982421875,0.43389892578125,-0.51141357421875,61.57972171379937,83.07110091204011,-33.74372734808002,0.7513705595953862,,,,3,0,3,3
1788938140.378546,3401898343.0,-9.80859375,1.06640625,0.54296875,-0.01171875,-0.013671875,0.017578125,26.1875,-5.0,-25.8125,26.1875,-5.0,-25.8125,-0.0029999038122643703,-0.6824659094422201,0.0682981449222896,0.7277132996080905,60.25102681115345,83.1535840595143,-125.05133910349643,0.51690673828125,0.531982421875,0.43389892578125,-0.51141357421875,61.57972171379937,83.07110091204011,-33.74372734808002,0.7416454047988538,,,,3,0,3,3
1788938140.395103,3401902250.0,-9.76953125,1.10546875,0.54296875,-0.0078125,-0.013671875,0.01953125,26.1875,-5.0,-25.8125,26.1875,-5.0,-25.8125,-0.0031609643933697214,-0.682493009545854,0.06841747261805832,0.7276759922284808,60.387859221814736,83.13714841105781,-124.91116101909037,0.51702880859375,0.53192138671875,0.433837890625,-0.51141357421875,61.5106064987249,83.06179356420276,-33.81148588103029,0.6527121557206463,,,,3,0,3,3
1788938140.3911679,3401906632.0,-9.76953125,1.1796875,0.54296875,-0.01171875,-0.017578125,0.015625,26.1875,-5.0,-25.8125,26.1875,-5.0,-25.8125,-0.003354583403265634,-0.682488155239687,0.06856259517508627,0.7276660190434734,60.510823466999085,83.11410168872268,-124.78431992239587,0.51702880859375,0.53192138671875,0.433837890625,-0.51141357421875,61.5106064987249,83.06179356420276,-33.81148588103029,0.6365700469481735,,,,3,0,3,3
1788938140.395103,3401910385.0,-9.76953125,1.14453125,0.578125,-0.01171875,-0.017578125,0.015625,27.3125,-3.75,-26.625,27.3125,-3.75,-26.625,-0.0034261983882637316,-0.6824732886605781,0.06838572426199811,0.7276962719064743,60.43712426866996,83.11938418537575,-124.83781217604998,0.51702880859375,0.53192138671875,0.433837890625,-0.51141357421875,61.5106064987249,83.06179356420276,-33.81148588103029,0.6427057940411856,,,,3,0,3,3
1788938140.4062762,3401915968.0,-9.76953125,1.1796875,0.54296875,-0.009765625,-0.01171875,0.001953125,27.3125,-3.75,-26.625,27.3125,-3.75,-26.625,-0.0035317432903574507,-0.6824898355595792,0.06810774369546618,0.7277063187824483,60.36309840550436,83.13150621877887,-124.88063929215426,0.51708984375,0.53192138671875,0.43377685546875,-0.51141357421875,61.49530863029376,83.05697503584719,-33.83366970608827,0.5464429604089365,,,,3,0,3,3
1788938140.4117546,3401918275.0,-9.7265625,1.21875,0.6171875,-0.013671875,-0.01171875,-0.005859375,27.3125,-3.75,-26.625,27.3125,-3.75,-26.625,-0.003585725697257516,-0.6824734737222399,0.06799532693975344,0.7277319120054301,60.31123063839422,83.13369753884866,-124.91897961020882,0.51708984375,0.53192138671875,0.43377685546875,-0.51141357421875,61.49530863029376,83.05697503584719,-33.83366970608827,0.552037333575042,,,,3,0,3,3
1788938140.4164982,3401921981.0,-9.76953125,1.21875,0.578125,-0.00390625,-0.013671875,-0.0078125,27.3125,-3.75,-26.625,27.3125,-3.75,-26.625,-0.0036598734451568312,-0.6824656634046101,0.06781739369474181,0.7277554704105792,60.24547282901157,83.13945429648369,-124.964238005649,0.51715087890625,0.5318603515625,0.43377685546875,-0.51141357421875,61.441754775074656,83.05248450755755,-33.87899295832762,0.5808143059357032,,,,3,0,3,3
1788938140.4185925,3401926464.0,-9.80859375,1.21875,0.578125,-0.01953125,-0.00390625,-0.021484375,27.3125,-3.75,-26.625,27.3125,-3.75,-26.625,-0.0037518234848064897,-0.6824759959969503,0.06755481285634032,0.7277697341662777,60.166858604660355,83.15097901078448,-125.01401274458138,0.51715087890625,0.5318603515625,0.43377685546875,-0.51141357421875,61.441754775074656,83.05248450755755,-33.87899295832762,0.5961120432023584,,,,3,0,3,3
1788938140.4225276,3401929917.0,-9.80859375,1.21875,0.578125,-0.01953125,-0.00390625,-0.021484375,29.0,-6.3125,-33.0625,29.0,-6.3125,-33.0625,-0.0038362717395402255,-0.6824660274129158,0.0676521566649235,0.7277695996295519,60.22776700533735,83.13809092175195,-124.9541871233108,0.51715087890625,0.5318603515625,0.43377685546875,-0.51141357421875,61.441754775074656,83.05248450755755,-33.87899295832762,0.585552165398207,,,,3,0,2,3
1788938140.4265459,3401933823.0,-9.80859375,1.1796875,0.54296875,-0.033203125,-0.009765625,-0.025390625,29.0,-6.3125,-33.0625,29.0,-6.3125,-33.0625,-0.003932868594393903,-0.682470250929592,0.06773514838026277,0.7277574038198599,60.301572021405285,83.12648497816662,-124.8793081011718,0.51715087890625,0.53173828125,0.433837890625,-0.511474609375,61.32313417437644,83.05399161907842,-33.98081968547882,0.7127754632955509,,,,3,0,2,3
1788938140.4317808,3401937206.0,-9.765625,1.14453125,0.54296875,-0.03515625,-0.005859375,-0.029296875,30.4375,-5.6875,-31.4375,30.4375,-5.6875,-31.4375,-0.004077374118651758,-0.6825075911483048,0.06770545093989823,0.7277243536932511,60.376108190335614,83.12165191186905,-124.79062977646323,0.51715087890625,0.53173828125,0.433837890625,-0.511474609375,61.32313417437644,83.05399161907842,-33.98081968547882,0.7101533557616467,,,,3,0,2,3
1788938140.4366736,3401941789.0,-9.80859375,1.10546875,0.54296875,-0.03515625,-0.0078125,-0.033203125,30.4375,-5.6875,-31.4375,30.4375,-5.6875,-31.4375,-0.004237656304723716,-0.6825889064229657,0.06758092578133862,0.7276587425214378,60.46141731587529,83.12554287012982,-124.68216759667808,0.5172119140625,0.53155517578125,0.43402099609375,-0.511474609375,61.22237543428006,83.08012662738197,-34.0755724503069,0.3599077638456143,,,,3,0,2,3
1788938140.439778,3401946871.0,-9.80859375,1.10546875,0.50390625,-0.04296875,-0.017578125,-0.041015625,30.4375,-5.6875,-31.4375,30.4375,-5.6875,-31.4375,-0.0043454996871285885,-0.6826843287592614,0.06743148530773967,0.7275824480347075,60.53441973309383,83.13580495300761,-124.58823176931278,0.5172119140625,0.53155517578125,0.43402099609375,-0.511474609375,61.22237543428006,83.08012662738197,-34.0755724503069,0.37122101036996613,,,,3,0,2,3
1788938140.4437132,3401948948.0,-9.765625,1.02734375,0.54296875,-0.04296875,-0.017578125,-0.041015625,31.0,-4.0,-29.875,31.0,-4.0,-29.875,-0.004339045525741864,-0.6826868290712953,0.06726726385925404,0.7275953417315115,60.46066660069261,83.14709854353839,-124.64913531817658,0.5172119140625,0.53155517578125,0.43402099609375,-0.511474609375,61.22237543428006,83.08012662738197,-34.0755724503069,0.38970728894497647,,,,3,0,2,3
1788938140.4480476,3401953431.0,-9.6953125,0.953125,0.54296875,-0.0546875,-0.013671875,-0.037109375,31.0,-4.0,-29.875,31.0,-4.0,-29.875,-0.004329741153963066,-0.6826956407295987,0.06690120175594987,0.7276208797677208,60.30081075046335,83.17216830278859,-124.77993674004385,0.5172119140625,0.53131103515625,0.43414306640625,-0.51153564453125,60.99601293559944,83.052308052076,-34.222454161081494,1.1647022694337097,,,,3,0,2,3
1788938140.4496748,3401957137.0,-9.6953125,0.9140625,0.54296875,-0.05859375,-0.013671875,-0.03515625,31.0,-4.0,-29.875,31.0,-4.0,-29.875,-0.004321968717379269,-0.6827024947698692,0.06659694792467548,0.7276424058206893,60.16667713343759,83.19294041316567,-124.88992602064936,0.5172119140625,0.53131103515625,0.43414306640625,-0.51153564453125,60.99601293559944,83.052308052076,-34.222454161081494,1.1769448338225734,,,,3,0,2,3
1788938140.4605875,3401961896.0,-9.6953125,0.875,0.54296875,-0.041015625,-0.01171875,-0.03125,26.3125,-3.25,-26.6875,26.3125,-3.25,-26.6875,-0.004290308002639417,-0.6827133227061453,0.06624300005295886,0.7276647423097815,60.00549944524203,83.21885664807861,-125.02485019718497,0.517333984375,0.53106689453125,0.434326171875,-0.51153564453125,60.84088824745107,83.07397484008371,-34.3636060177166,1.0265874497124416,,,,3,0,3,3
1788938140.4598432,3401966203.0,-9.69921875,0.875,0.578125,-0.0390625,-0.0078125,-0.021484375,26.3125,-3.25,-26.6875,26.3125,-3.25,-26.6875,-0.004275577466478601,-0.6827181090984781,0.06594013862260105,0.727687845895999,59.86586513967313,83.23978013947863,-125.14102019685917,0.517333984375,0.53106689453125,0.434326171875,-0.51153564453125,60.84088824745107,83.07397484008371,-34.3636060177166,1.0418697414932485,,,,3,0,3,3
1788938140.4637783,3401968656.0,-9.65625,0.875,0.6171875,-0.0390625,-0.0078125,-0.021484375,26.75,-4.6875,-26.4375,26.75,-4.6875,-26.4375,-0.004237596290169104,-0.6827005885914571,0.06578381074060578,0.7277186539858681,59.76090263992418,83.25093570704661,-125.23633864613953,0.517333984375,0.53106689453125,0.434326171875,-0.51153564453125,60.84088824745107,83.07397484008371,-34.3636060177166,1.0505917498548647,,,,3,0,3,3
1788938140.4657376,3401976715.0,-9.69921875,0.875,0.65625,-0.03515625,-0.0078125,-0.015625,26.75,-4.6875,-26.4375,26.75,-4.6875,-26.4375,-0.004134985763705396,-0.6825979966990914,0.0653313280302245,0.727856231939336,59.39958998567869,83.27816907784647,-125.56915604832061,0.51739501953125,0.5308837890625,0.43450927734375,-0.51153564453125,60.73895026163779,83.10023491840651,-34.45990957291223,0.8751889391832388,,,,3,0,3,3
1788938140.4696727,3401977268.0,-9.69921875,0.875,0.6171875,-0.037109375,-0.001953125,-0.0078125,26.75,-4.6875,-26.4375,26.75,-4.6875,-26.4375,-0.004128350561010141,-0.6825953298953717,0.06529905068427178,0.7278616670126316,59.379168285672165,83.28045607016536,-125.58748864384825,0.51739501953125,0.5308837890625,0.43450927734375,-0.51153564453125,60.73895026163779,83.10023491840651,-34.45990957291223,0.8774867828774161,,,,3,0,3,3
1788938140.4696727,3401981021.0,-9.6953125,0.875,0.6953125,-0.037109375,-0.001953125,-0.0078125,26.75,-4.6875,-26.4375,26.75,-4.6875,-26.4375,-0.004104987922094625,-0.6825365073232659,0.06511727268447932,0.7279332428480321,59.21957075708211,83.28859943589097,-125.73419519517326,0.51739501953125,0.5308837890625,0.43450927734375,-0.51153564453125,60.73895026163779,83.10023491840651,-34.45990957291223,0.8903542720963028,,,,3,0,3,3
1788938140.478115,3401984228.0,-9.73046875,0.875,0.6953125,-0.0390625,0.001953125,-0.005859375,26.75,-4.6875,-26.4375,26.75,-4.6875,-26.4375,-0.00408821498188038,-0.6824912610278202,0.06496117031982977,0.7279897056068826,59.08928275511859,83.29578992517764,-125.85314541914798,0.5174560546875,0.53076171875,0.4345703125,-0.511474609375,60.65873436086434,83.06528236291801,-34.47078705084704,1.340343886867562,,,,3,0,3,3
1788938140.4786105,3401988010.0,-9.73046875,0.8359375,0.6953125,-0.041015625,0.009765625,0.005859375,27.0625,-6.5625,-26.5625,27.0625,-6.5625,-26.5625,-0.004101419694168104,-0.6824564464072675,0.06508288031061618,0.7280113981278938,59.1124136158937,83.28412189857252,-125.83885942944578,0.5174560546875,0.53076171875,0.4345703125,-0.511474609375,60.65873436086434,83.06528236291801,-34.47078705084704,1.3346889971269438,,,,3,0,3,3
1788938140.4874647,3401992493.0,-9.7265625,0.8359375,0.65625,-0.0390625,0.01953125,0.013671875,27.0625,-6.5625,-26.5625,27.0625,-6.5625,-26.5625,-0.004124558247851553,-0.6824483556426516,0.06525097544880613,0.7280038050057708,59.19063409424914,83.2711302662909,-125.77244884712336,0.517578125,0.53070068359375,0.4346923828125,-0.5113525390625,60.70422107739643,83.08450738118903,-34.430008779172915,1.0916226033830467,,,,3,0,3,3
1788938140.4919634,3401996676.0,-9.69921875,0.875,0.6171875,-0.02734375,0.02734375,0.02734375,27.0625,-6.5625,-26.5625,27.0625,-6.5625,-26.5625,-0.004171279638097891,-0.6824685361448106,0.06545270443452521,0.7279665109610103,59.32398953390089,83.25681734661985,-125.65172355843201,0.517578125,0.53070068359375,0.4346923828125,-0.5113525390625,60.70422107739643,83.08450738118903,-34.430008779172915,1.0804304300765415,,,,3,0,3,3
1788938140.4958985,3402000229.0,-9.7265625,0.875,0.65625,-0.02734375,0.02734375,0.02734375,25.8125,-6.5,-26.375,25.8125,-6.5,-26.375,-0.004207481353972504,-0.6824722051487618,0.065621489580363,0.7279476673534276,59.41944993534995,83.24388025466342,-125.56706821047278,0.517578125,0.53070068359375,0.4346923828125,-0.5113525390625,60.70422107739643,83.08450738118903,-34.430008779172915,1.0714883703102946,,,,3,0,3,3
1788938140.499003,3402006012.0,-9.69921875,0.9140625,0.65625,-0.041015625,0.02734375,0.033203125,25.8125,-6.5,-26.375,25.8125,-6.5,-26.375,-0.0043297136503255215,-0.6824761264719583,0.06588273255997765,0.7279196768366468,59.586811848482874,83.21918360929956,-125.41106417761631,0.51763916015625,0.53076171875,0.434814453125,-0.51116943359375,60.8842938310984,83.1071427297497,-34.264411311331585,0.7110855247549795,,,,3,0,3,3
1788938140.5049274,3402008518.0,-9.7265625,0.953125,0.6171875,-0.044921875,0.03515625,0.037109375,25.8125,-6.5,-26.375,25.8125,-6.5,-26.375,-0.0043976637571282,-0.6824942062760377,0.06599770925108765,0.727891902226374,59.68305331380985,83.2087315479962,-125.31867058716765,0.51763916015625,0.53076171875,0.434814453125,-0.51116943359375,60.8842938310984,83.1071427297497,-34.264411311331585,0.7012393456406159,,,,3,0,3,3
1788938140.5069246,3402012025.0,-9.69921875,0.953125,0.6171875,-0.046875,0.04296875,0.0390625,25.8125,-6.5,-26.375,25.8125,-6.5,-26.375,-0.004498467705033628,-0.68252827694805,0.06615838345414245,0.7278447521644761,59.82882567650382,83.19444627802116,-125.17779968449952,0.517822265625,0.53082275390625,0.43487548828125,-0.5108642578125,61.08891414436503,83.08847938263247,-34.0287314694379,0.7401796479028009,,,,3,0,3,3
1788938140.5081744,3402016254.0,-9.65625,0.953125,0.578125,-0.046875,0.04296875,0.0390625,25.8125,-6.5,-26.375,25.8125,-6.5,-26.375,-0.004620239392483179,-0.6825835360051424,0.06635056827864459,0.7277746710704993,60.01897629193285,83.1784508754638,-124.99341175724054,0.517822265625,0.53082275390625,0.43487548828125,-0.5108642578125,61.08891414436503,83.08847938263247,-34.0287314694379,0.7246482323398626,,,,3,0,3,3
1788938140.5116816,3402019760.0,-9.6953125,0.98828125,0.54296875,-0.052734375,0.0546875,0.037109375,29.75,-3.875,-32.0625,29.75,-3.875,-32.0625,-0.004733389288588253,-0.6826706278423212,0.0661536528034209,0.7277101779747058,60.06290032365866,83.19079180461095,-124.92426304325933,0.517822265625,0.53082275390625,0.43487548828125,-0.5108642578125,61.08891414436503,83.08847938263247,-34.0287314694379,0.7320292560714087,,,,3,0,3,3
1788938140.5097284,3402024143.0,-9.73046875,0.98828125,0.46484375,-0.052734375,0.046875,0.046875,29.75,-3.875,-32.0625,29.75,-3.875,-32.0625,-0.004888493527859918,-0.6827919618161299,0.06593100021556478,0.7276155184717296,60.14740095057525,83.20481165326896,-124.80903429552278,0.5179443359375,0.5308837890625,0.43505859375,-0.51055908203125,61.33792235228272,83.10477417101458,-33.77451615293185,0.2126793794776673,,,,3,0,3,3
1788938140.5097284,3402027850.0,-9.73046875,0.98828125,0.46484375,-0.048828125,0.044921875,0.046875,29.75,-3.875,-32.0625,29.75,-3.875,-32.0625,-0.0050147807927097155,-0.68289158982381,0.06574776070350798,0.7275377381854392,60.21660770341573,83.21641236288238,-124.71464986886166,0.5179443359375,0.5308837890625,0.43505859375,-0.51055908203125,61.33792235228272,83.10477417101458,-33.77451615293185,0.23623953652556767,,,,3,0,3,3
1788938140.524759,3402035132.0,-9.76953125,0.953125,0.42578125,-0.044921875,0.037109375,0.05078125,30.375,-5.3125,-32.125,30.375,-5.3125,-32.125,-0.005214056933061998,-0.6831471113409449,0.06554398521036035,0.7273148038363892,60.47651452501091,83.23736559664677,-124.42194393183892,0.51806640625,0.531005859375,0.43511962890625,-0.51019287109375,61.6067755276017,83.05967003404582,-33.43731202091269,0.9672446710583538,,,,3,0,2,3
1788938140.5267122,3402039868.0,-9.8046875,0.9140625,0.46484375,-0.044921875,0.029296875,0.056640625,29.8125,-7.6875,-32.4375,29.8125,-7.6875,-32.4375,-0.0053468856927947304,-0.6832293646806719,0.06575982041290124,0.7272170873066012,60.711037393946725,83.22103779962617,-124.19420621694792,0.51806640625,0.531005859375,0.43511962890625,-0.51019287109375,61.6067755276017,83.05967003404582,-33.43731202091269,0.9531203751654953,,,,3,0,2,3
1788938140.5267122,3402043675.0,-9.84375,0.9140625,0.42578125,-0.02734375,0.025390625,0.05859375,29.8125,-7.6875,-32.4375,29.8125,-7.6875,-32.4375,-0.0054321837927088085,-0.6833006056954501,0.06594818907555554,0.7271324569795574,60.90439153262223,83.20876571680554,-124.00925726110962,0.51824951171875,0.53106689453125,0.4351806640625,-0.5098876953125,61.80881802487467,83.04108405969454,-33.20486331821748,0.9752083906873347,,,,3,0,2,3
1788938140.5428114,3402047057.0,-9.84375,0.9140625,0.42578125,-0.03125,0.015625,0.0625,30.6875,-4.9375,-29.625,30.6875,-4.9375,-29.625,-0.005501983753349027,-0.6833767228910855,0.06585509296419952,0.7270688340976357,60.97096080005528,83.21630703798162,-123.92943429209433,0.51824951171875,0.53106689453125,0.4351806640625,-0.5098876953125,61.80881802487467,83.04108405969454,-33.20486331821748,0.9780549561244777,,,,3,0,2,3
1788938140.5428114,3402051740.0,-9.8046875,0.9140625,0.38671875,-0.013671875,0.0078125,0.05859375,30.6875,-4.9375,-29.625,30.6875,-4.9375,-29.625,-0.0055693184964172825,-0.6834800134997648,0.06576851658340079,0.7269790616408879,61.07071257787445,83.22581066343142,-123.81715402050158,0.5184326171875,0.53118896484375,0.43511962890625,-0.5096435546875,62.00521648219635,83.02275819832198,-33.006281229682614,0.8725189162210886,,,,3,0,2,3
1788938140.54894,3402056046.0,-9.8046875,0.875,0.38671875,-0.001953125,-0.00390625,0.068359375,30.6875,-4.9375,-29.625,30.6875,-4.9375,-29.625,-0.005615420975736792,-0.6835499270699061,0.06571550654482575,0.7269177645714461,61.14109957928093,83.23182836301378,-123.73869954903199,0.5184326171875,0.53118896484375,0.43511962890625,-0.5096435546875,62.00521648219635,83.02275819832198,-33.006281229682614,0.8746235384627276,,,,3,0,2,3
1788938140.552875,3402058700.0,-9.765625,0.9140625,0.38671875,-0.001953125,-0.00390625,0.068359375,26.0625,-6.0625,-26.6875,26.0625,-6.0625,-26.6875,-0.005659109286537543,-0.6835844118354023,0.065858828220699,0.7268720252720741,61.25872590659584,83.2222273811186,-123.62919206159265,0.5184326171875,0.53118896484375,0.43511962890625,-0.5096435546875,62.00521648219635,83.02275819832198,-33.006281229682614,0.8655542739481897,,,,3,0,3,3
1788938140.5506043,3402066559.0,-9.73046875,0.875,0.38671875,0.01171875,-0.01171875,0.076171875,26.0625,-6.0625,-26.6875,26.0625,-6.0625,-26.6875,-0.005739066572796654,-0.6836688788885057,0.06631939877355758,0.7267500701757933,61.585756699007206,83.19326762189354,-123.3331579247249,0.51861572265625,0.53131103515625,0.4349365234375,-0.50946044921875,62.12761525604671,82.97540968891987,-32.86290885048012,1.0417310740187273,,,,3,0,3,3
1788938140.556542,3402066712.0,-9.69921875,0.9140625,0.42578125,0.01171875,-0.02734375,0.080078125,26.0625,-6.0625,-26.6875,26.0625,-6.0625,-26.6875,-0.005741067391872147,-0.6836691653743268,0.06632953287354425,0.726748860013107,61.59121385818323,83.19248449878722,-123.32836356674075,0.51861572265625,0.53131103515625,0.4349365234375,-0.50946044921875,62.12761525604671,82.97540968891987,-32.86290885048012,1.04124592296088,,,,3,0,3,3
1788938140.558521,3402070865.0,-9.6953125,0.9140625,0.46484375,0.01171875,-0.02734375,0.080078125,26.0625,-6.0625,-26.6875,26.0625,-6.0625,-26.6875,-0.005789209493511542,-0.6836629643893861,0.06662241139266799,0.7267275214796693,61.72901261047938,83.16933770247377,-123.21050835210309,0.51861572265625,0.53131103515625,0.4349365234375,-0.50946044921875,62.12761525604671,82.97540968891987,-32.86290885048012,1.0278153587766756,,,,3,0,3,3
1788938140.558521,3402074848.0,-9.69921875,0.953125,0.42578125,0.0234375,-0.02734375,0.087890625,26.0625,-6.0625,-26.6875,26.0625,-6.0625,-26.6875,-0.005852686763895108,-0.6836663242715211,0.06692234187249466,0.7266962936970381,61.8846835866235,83.14539650114257,-123.07411079771886,0.51885986328125,0.531494140625,0.43463134765625,-0.50933837890625,62.2581179879389,82.9531884474704,-32.77819787002304,0.5578058617111101,,,,3,0,3,3
1788938140.558521,3402078631.0,-9.73046875,0.953125,0.46484375,0.0234375,-0.037109375,0.091796875,26.8125,-4.5625,-25.6875,26.8125,-4.5625,-25.6875,-0.005890148845185314,-0.6836696720801114,0.06692366391296638,0.7266927196779386,61.90062782580065,83.14297217530346,-123.055236476449,0.51885986328125,0.531494140625,0.43463134765625,-0.50933837890625,62.2581179879389,82.9531884474704,-32.77819787002304,0.5556915943926696,,,,3,0,3,3
1788938140.574292,3402082137.0,-9.66015625,0.953125,0.50390625,0.025390625,-0.044921875,0.099609375,26.8125,-4.5625,-25.6875,26.8125,-4.5625,-25.6875,-0.005928455561489868,-0.6836413505138353,0.0669173374191018,0.7267196345462348,61.8776386398972,83.13845584503683,-123.07461093315153,0.51910400390625,0.5316162109375,0.4342041015625,-0.50927734375,62.24873252374651,82.87335882547846,-32.76862172901372,1.0097649239174962,,,,3,0,3,3
1788938140.5703568,3402086320.0,-9.7265625,1.06640625,0.50390625,0.0234375,-0.048828125,0.1015625,26.8125,-4.5625,-25.6875,26.8125,-4.5625,-25.6875,-0.006074991547449612,-0.6836276195307509,0.06692445188044313,0.7267306860405164,61.91043218279907,83.12669457352777,-123.03051988917339,0.51910400390625,0.5316162109375,0.4342041015625,-0.50927734375,62.24873252374651,82.87335882547846,-32.76862172901372,1.0044588427729837,,,,3,0,3,3
1788938140.574292,3402090073.0,-9.7265625,1.10546875,0.50390625,0.0234375,-0.048828125,0.1015625,26.5,-4.5625,-25.75,26.5,-4.5625,-25.75,-0.00626544090228029,-0.6836221568011641,0.0669691584302195,0.7267300893729204,61.98232034756911,83.11005013360122,-122.94683322746073,0.51910400390625,0.5316162109375,0.4342041015625,-0.50927734375,62.24873252374651,82.87335882547846,-32.76862172901372,0.9965639761909236,,,,3,0,3,3
1788938140.5860858,3402095656.0,-9.73046875,1.14453125,0.54296875,0.01953125,-0.048828125,0.10546875,26.5,-4.5625,-25.75,26.5,-4.5625,-25.75,-0.006677458400343382,-0.6835245781422967,0.0670796928172765,0.726808005897188,62.04639662435424,83.06626151623048,-122.85837472122984,0.5194091796875,0.53179931640625,0.43377685546875,-0.5091552734375,62.331164386793894,82.81716921829361,-32.70772897647022,0.8966225813933826,,,,3,0,3,3
1788938140.590021,3402098039.0,-9.7265625,1.1796875,0.54296875,0.021484375,-0.052734375,0.099609375,26.5,-4.5625,-25.75,26.5,-4.5625,-25.75,-0.006858096853309934,-0.68347866751717,0.0671553733086149,0.7268425093459276,62.08248654241848,83.04501040621807,-122.81381195861977,0.5194091796875,0.53179931640625,0.43377685546875,-0.5091552734375,62.331164386793894,82.81716921829361,-32.70772897647022,0.8861048703632256,,,,3,0,3,3
1788938140.590021,3402105745.0,-9.76953125,1.2578125,0.578125,0.00390625,-0.064453125,0.09765625,26.5,-4.5625,-25.75,26.5,-4.5625,-25.75,-0.007462861497962969,-0.6832149813963131,0.0674984494192505,0.7270526488638183,62.11836690032668,82.95917347163763,-122.7568923644462,0.51971435546875,0.53192138671875,0.43328857421875,-0.50909423828125,62.30627142226996,82.73361084959798,-32.72197556645228,1.1330356246522377,,,,3,0,3,3
1788938140.6056755,3402109604.0,-9.76953125,1.296875,0.54296875,-0.0078125,-0.064453125,0.099609375,26.75,-3.5,-28.0,26.75,-3.5,-28.0,-0.007696769936663886,-0.6831300098362308,0.06745301400867976,0.727134265658577,62.07503010040861,82.93913731069178,-122.77758342705405,0.51971435546875,0.53192138671875,0.43328857421875,-0.50909423828125,62.30627142226996,82.73361084959798,-32.72197556645228,1.1297624661792391,,,,3,0,3,3
1788938140.6056755,3402113310.0,-9.76953125,1.296875,0.54296875,-0.01171875,-0.0625,0.091796875,26.75,-3.5,-28.0,26.75,-3.5,-28.0,-0.00791505209424078,-0.6830530931314581,0.06739358634955005,0.7272096867017372,62.030173604623144,82.92175817781063,-122.79991987720055,0.52008056640625,0.531982421875,0.43292236328125,-0.509033203125,62.28899855298363,82.70361078225734,-32.78209828199383,0.6721448492016211,,,,3,0,3,3
1788938140.6081843,3402117770.0,-9.76953125,1.296875,0.54296875,-0.021484375,-0.0625,0.087890625,29.0625,-5.875,-30.3125,29.0625,-5.875,-30.3125,-0.008214282010079656,-0.6829396948439067,0.06766945955855527,0.7272872493180558,62.111528845282166,82.87363283781504,-122.71679269055014,0.52008056640625,0.531982421875,0.43292236328125,-0.509033203125,62.28899855298363,82.70361078225734,-32.78209828199383,0.6388667244071412,,,,3,0,3,3
1788938140.6062312,3402121476.0,-9.73046875,1.2578125,0.50390625,-0.029296875,-0.06640625,0.08984375,29.0625,-5.875,-30.3125,29.0625,-5.875,-30.3125,-0.00846490014429733,-0.6828653736848536,0.06788181407124552,0.7273343702907137,62.19351659350641,82.83619889229956,-122.63179420778376,0.5205078125,0.53192138671875,0.43255615234375,-0.5089111328125,62.167611743699716,82.61245838983541,-32.85042821617693,1.108952012246277,,,,3,0,3,3
1788938140.61975,3402126559.0,-9.765625,1.2578125,0.50390625,-0.04296875,-0.072265625,0.087890625,29.0625,-5.875,-30.3125,29.0625,-5.875,-30.3125,-0.008825793478918655,-0.6827582655722669,0.06814013333433433,0.7274064739823233,62.290381899024325,82.78542357039586,-122.52672800191472,0.5205078125,0.53192138671875,0.43255615234375,-0.5089111328125,62.167611743699716,82.61245838983541,-32.85042821617693,1.0905533222266681,,,,3,0,3,3
1788938140.6217031,3402129212.0,-9.7265625,1.296875,0.50390625,-0.04296875,-0.072265625,0.087890625,30.5,-7.1875,-31.9375,30.5,-7.1875,-31.9375,-0.008986095010530085,-0.6826877148167667,0.06829909205457,0.7274558186991457,62.32660293645605,82.75811636696405,-122.49047039262061,0.5205078125,0.53192138671875,0.43255615234375,-0.5089111328125,62.167611743699716,82.61245838983541,-32.85042821617693,1.0808148263342874,,,,3,0,2,3
1788938140.628267,3402136871.0,-9.765625,1.2578125,0.50390625,-0.044921875,-0.07421875,0.078125,30.5,-7.1875,-31.9375,30.5,-7.1875,-31.9375,-0.00940757186639465,-0.6824889678640247,0.06872783273271954,0.7275965855770219,62.41106366672875,82.68455820908842,-122.40679675483173,0.52099609375,0.5318603515625,0.4322509765625,-0.5087890625,62.09035135246578,82.57355015562656,-32.94192510976648,0.6483963963584372,,,,3,0,2,3
1788938140.6322021,3402137525.0,-9.765625,1.2578125,0.46484375,-0.0390625,-0.076171875,0.07421875,30.5,-7.1875,-31.9375,30.5,-7.1875,-31.9375,-0.009440394862368948,-0.6824741800183496,0.06876325766454572,0.727606684238458,62.41915291913864,82.67874885706205,-122.3989345804198,0.52099609375,0.5318603515625,0.4322509765625,-0.5087890625,62.09035135246578,82.57355015562656,-32.94192510976648,0.6451187007686434,,,,3,0,2,3
1788938140.6375244,3402140978.0,-9.765625,1.21875,0.46484375,-0.0390625,-0.076171875,0.07421875,30.5,-7.1875,-31.9375,30.5,-7.1875,-31.9375,-0.009604632561581986,-0.6823996579933836,0.06894872380494405,0.7276568774426171,62.46226106237108,82.64909274819537,-122.35763159944979,0.52099609375,0.5318603515625,0.4322509765625,-0.5087890625,62.09035135246578,82.57355015562656,-32.94192510976648,0.6287605804525277,,,,3,0,2,3
1788938140.6375244,3402144884.0,-9.76953125,1.21875,0.42578125,-0.04296875,-0.080078125,0.06640625,30.5,-7.1875,-31.9375,30.5,-7.1875,-31.9375,-0.009779414684832096,-0.6823230282156988,0.06912948315875328,0.727709257034143,62.503900744579155,82.61884746199357,-122.31655961660165,0.521484375,0.53167724609375,0.43194580078125,-0.50872802734375,61.87663959170217,82.50849590086429,-33.12394369540149,0.7452815031092026,,,,3,0,2,3
1788938140.6375244,3402148467.0,-9.765625,1.1796875,0.42578125,-0.041015625,-0.091796875,0.0625,29.625,-5.5625,-30.875,29.625,-5.5625,-30.875,-0.009929493912264671,-0.6822894583904617,0.0691224838434142,0.7277393642968708,62.50767607821415,82.60619878192253,-122.30005301557767,0.521484375,0.53167724609375,0.43194580078125,-0.50872802734375,61.87663959170217,82.50849590086429,-33.12394369540149,0.7426805605227752,,,,3,0,2,3
1788938140.647038,3402153150.0,-9.84765625,1.10546875,0.42578125,-0.0234375,-0.099609375,0.05859375,29.625,-5.5625,-30.875,29.625,-5.5625,-30.875,-0.010029796508874731,-0.6822296152164671,0.0690828174920936,0.7277978562972934,62.45658638441031,82.5971389228537,-122.3397921351871,0.52191162109375,0.531494140625,0.431640625,-0.50872802734375,61.64208575647623,82.44907112976901,-33.33336146768198,0.8628210411538824,,,,3,0,2,3
1788938140.6514652,3402156432.0,-9.8046875,1.14453125,0.46484375,-0.01953125,-0.1015625,0.056640625,26.25,-5.4375,-25.5625,26.25,-5.4375,-25.5625,-0.010117857545850541,-0.682168173568413,0.06920415390844731,0.7278427007333614,62.465734609776284,82.5780979114655,-122.3333998536952,0.52191162109375,0.531494140625,0.431640625,-0.50872802734375,61.64208575647623,82.44907112976901,-33.33336146768198,0.854084107903096,,,,3,0,3,3
1788938140.653212,3402160785.0,-9.84375,1.1796875,0.46484375,-0.01953125,-0.1015625,0.056640625,26.25,-5.4375,-25.5625,26.25,-5.4375,-25.5625,-0.010251898906362588,-0.6820816589071903,0.06937562775614683,0.7279055786464818,62.481629715327216,82.55054616917587,-122.32062195809989,0.52191162109375,0.531494140625,0.431640625,-0.50872802734375,61.64208575647623,82.44907112976901,-33.33336146768198,0.84225772978041,,,,3,0,3,3
1788938140.651259,3402166168.0,-9.84375,1.1796875,0.54296875,-0.0078125,-0.111328125,0.05078125,26.25,-5.4375,-25.5625,26.25,-5.4375,-25.5625,-0.010402064527521066,-0.681914882103899,0.06966733432582374,0.728031835256347,62.46661690572116,82.50757877588416,-122.34725593034103,0.5223388671875,0.53131103515625,0.4312744140625,-0.50885009765625,61.36201055152113,82.41846947999431,-33.64348349260216,0.0,,,,3,0,3,3
1788938140.6653025,3402168675.0,-9.84375,1.1796875,0.50390625,-0.005859375,-0.123046875,0.044921875,26.25,-5.4375,-25.5625,26.25,-5.4375,-25.5625,-0.010454660575636814,-0.681844056077501,0.0697742240386916,0.7280871794804715,62.45044877810821,82.49124266792899,-122.3678817590842,0.5223388671875,0.53131103515625,0.4312744140625,-0.50885009765625,61.36201055152113,82.41846947999431,-33.64348349260216,0.0,,,,3,0,3,3
1788938140.6653025,3402172181.0,-9.84765625,1.21875,0.54296875,-0.0078125,-0.12109375,0.041015625,26.25,-5.4375,-25.5625,26.25,-5.4375,-25.5625,-0.010556286781607738,-0.6817217848314866,0.06995096503252826,0.7281832430003966,62.42262673528538,82.46280378168603,-122.40188749516521,0.522705078125,0.53106689453125,0.43084716796875,-0.509033203125,60.97305119435305,82.33865546414015,-33.996427039481574,0.8422122333717244,,,,3,0,3,3
1788938140.669025,3402176710.0,-9.80859375,1.1796875,0.54296875,-0.0078125,-0.12109375,0.041015625,26.25,-5.4375,-25.5625,26.25,-5.4375,-25.5625,-0.010656766402693453,-0.6815807145210536,0.07016356210409176,0.7282933732196619,62.38973838050741,82.4305864564788,-122.44397809308987,0.522705078125,0.53106689453125,0.43084716796875,-0.509033203125,60.97305119435305,82.33865546414015,-33.996427039481574,0.8270289677991475,,,,3,0,3,3
1788938140.6765463,3402179917.0,-9.765625,1.2578125,0.54296875,-0.001953125,-0.126953125,0.037109375,26.4375,-6.5625,-26.6875,26.4375,-6.5625,-26.6875,-0.010719000971999388,-0.6814365379604814,0.0703544879386157,0.7284089467994546,62.33495637841027,82.40222790817815,-122.50929936758862,0.522705078125,0.53106689453125,0.43084716796875,-0.509033203125,60.97305119435305,82.33865546414015,-33.996427039481574,0.813800376087968,,,,3,0,3,3
1788938140.6788769,3402185500.0,-9.765625,1.2578125,0.50390625,0.001953125,-0.126953125,0.033203125,26.4375,-6.5625,-26.6875,26.4375,-6.5625,-26.6875,-0.010808001614864438,-0.6812056043061592,0.07067569949660092,0.7285925179849433,62.251452228507716,82.35651884183682,-122.6118068481715,0.5230712890625,0.53082275390625,0.430419921875,-0.50927734375,60.579039885801045,82.28693052684629,-34.39677660405157,0.783665226895061,,,,3,0,3,3
1788938140.6848013,3402188006.0,-9.76953125,1.296875,0.54296875,0.01171875,-0.126953125,0.021484375,26.4375,-6.5625,-26.6875,26.4375,-6.5625,-26.6875,-0.010835136960071882,-0.6810955066888682,0.07082254707050487,0.7286807788062868,62.20541919183905,82.33620382185359,-122.66762820242715,0.5230712890625,0.53082275390625,0.430419921875,-0.50927734375,60.579039885801045,82.28693052684629,-34.39677660405157,0.7736348000902739,,,,3,0,3,3
1788938140.6854348,3402191512.0,-9.73046875,1.296875,0.578125,0.01171875,-0.138671875,0.015625,26.4375,-6.5625,-26.6875,26.4375,-6.5625,-26.6875,-0.010866320627782049,-0.6809170909761391,0.07102514606677464,0.7288273231148789,62.113957528999045,82.30650160522644,-122.77310820050259,0.52337646484375,0.53057861328125,0.42999267578125,-0.50958251953125,60.16608021753995,82.24039035027646,-34.822552918472624,0.7574414169481066,,,,3,0,3,3
1788938140.6834383,3402196142.0,-9.69921875,1.375,0.578125,0.01171875,-0.138671875,0.015625,26.4375,-6.5625,-26.6875,26.4375,-6.5625,-26.6875,-0.01092525817432178,-0.680679563315284,0.07128843279435615,0.7290225854995601,61.99565780849727,82.2661468821582,-122.90813505869036,0.52337646484375,0.53057861328125,0.42999267578125,-0.50958251953125,60.16608021753995,82.24039035027646,-34.822552918472624,0.7368484235531852,,,,3,0,3,3
1788938140.676407,3402200225.0,-9.69921875,1.3359375,0.65625,0.005859375,-0.13671875,0.0,26.4375,-6.5625,-26.6875,26.4375,-6.5625,-26.6875,-0.010956722701961791,-0.6804517501451527,0.07149391983908296,0.7292146360147155,61.85813741048751,82.2322495498598,-123.05990000903819,0.52337646484375,0.53057861328125,0.42999267578125,-0.50958251953125,60.16608021753995,82.24039035027646,-34.822552918472624,0.720472124389593,,,,3,0,3,3
1788938140.6854348,3402204131.0,-9.69921875,1.41015625,0.65625,0.0078125,-0.138671875,-0.0078125,26.4375,-6.5625,-26.6875,26.4375,-6.5625,-26.6875,-0.01098473732539146,-0.6802346093325363,0.07167915073640291,0.729398595530463,61.723574271656204,82.20073613967581,-123.20733556970634,0.52362060546875,0.5302734375,0.42962646484375,-0.50994873046875,59.69786126174739,82.19967549361937,-35.29559779617726,0.8122007164241624,,,,3,0,3,3
1788938140.7005224,3402207537.0,-9.73046875,1.44921875,0.65625,0.0078125,-0.138671875,-0.01953125,26.4375,-6.5625,-26.6875,26.4375,-6.5625,-26.6875,-0.010998492754566805,-0.680048608751062,0.07182572373986677,0.7295573920550167,61.601709578451846,82.17521061656444,-123.34007246536933,0.52362060546875,0.5302734375,0.42962646484375,-0.50994873046875,59.69786126174739,82.19967549361937,-35.29559779617726,0.8010475163904214,,,,3,0,3,3
1788938140.7062116,3402215596.0,-9.76953125,1.375,0.734375,-0.001953125,-0.1328125,-0.025390625,26.5,-6.375,-28.3125,26.5,-6.375,-28.3125,-0.011035943453873142,-0.6795645682563299,0.07210588953524387,0.7299800998773884,61.24906779943107,82.11512428894113,-123.71262415857349,0.52386474609375,0.5299072265625,0.4293212890625,-0.5103759765625,59.18710874778703,82.18674314764802,-35.83844072955693,0.30674904892047933,,,,3,0,3,3
1788938140.7122295,3402219179.0,-9.73046875,1.296875,0.734375,-0.013671875,-0.13671875,-0.03515625,29.0625,-9.125,-33.4375,29.0625,-9.125,-33.4375,-0.011004711515080787,-0.6793653966996301,0.07222457994887026,0.7301542057283744,61.0942795358511,82.09329908986162,-123.87966608667644,0.52386474609375,0.5299072265625,0.4293212890625,-0.5103759765625,59.18710874778703,82.18674314764802,-35.83844072955693,0.28069452604884126,,,,3,0,2,3
1788938140.7156556,3402223662.0,-9.73046875,1.296875,0.80859375,-0.015625,-0.138671875,-0.0390625,29.0625,-9.125,-33.4375,29.0625,-9.125,-33.4375,-0.010961583551651725,-0.679097298871128,0.07235879390280349,0.7303909277208401,60.87697102080842,82.06556447098816,-124.11147587665806,0.52410888671875,0.52947998046875,0.4290771484375,-0.5107421875,58.655636285894765,82.14697639500551,-36.346881049995325,0.7185509667304033,,,,3,0,2,3
1788938140.7156556,3402226945.0,-9.7265625,1.21875,0.76953125,-0.025390625,-0.134765625,-0.0390625,29.75,-6.75,-32.375,29.75,-6.75,-32.375,-0.010949589662282173,-0.6788596166047143,0.07237190812178484,0.7306107269567974,60.650794430879365,82.0459443833235,-124.33975312929628,0.52410888671875,0.52947998046875,0.4290771484375,-0.5107421875,58.655636285894765,82.14697639500551,-36.346881049995325,0.7068620816519575,,,,3,0,2,3
1788938140.7112284,3402231828.0,-9.6953125,1.14453125,0.6953125,-0.025390625,-0.138671875,-0.04296875,29.75,-6.75,-32.375,29.75,-6.75,-32.375,-0.010795775020229067,-0.6785257118344942,0.07243334677527717,0.7309170403651416,60.31433340208193,82.02473644142401,-124.69377912343515,0.52435302734375,0.52899169921875,0.42889404296875,-0.51116943359375,58.07999205851092,82.1347134793411,-36.92682486226455,0.5148875766820514,,,,3,0,2,3
1788938140.713442,3402235981.0,-9.69921875,1.10546875,0.6953125,-0.025390625,-0.138671875,-0.04296875,29.75,-6.75,-32.375,29.75,-6.75,-32.375,-0.01056446765728878,-0.6782682953362519,0.07239605043163908,0.7311629937617691,59.99081965971884,82.02128542504447,-125.03307709703319,0.52435302734375,0.52899169921875,0.42889404296875,-0.51116943359375,58.07999205851092,82.1347134793411,-36.92682486226455,0.4989337444905712,,,,3,0,2,3
1788938140.7317061,3402239164.0,-9.6953125,1.10546875,0.80859375,-0.03515625,-0.1484375,-0.037109375,29.8125,-7.125,-32.0625,29.8125,-7.125,-32.0625,-0.010504569516420093,-0.6780214324534803,0.07239671029920816,0.731392717690611,59.74127431562505,82.00445361822023,-125.28759762001805,0.52435302734375,0.52899169921875,0.42889404296875,-0.51116943359375,58.07999205851092,82.1347134793411,-36.92682486226455,0.4860912052240276,,,,3,0,2,3
1788938140.727771,3402246246.0,-9.65625,1.06640625,0.88671875,-0.0390625,-0.142578125,-0.033203125,29.8125,-7.125,-32.0625,29.8125,-7.125,-32.0625,-0.010390667607842243,-0.677475673871239,0.07230443807848974,0.7319090200110446,59.1607966431835,81.97142263406275,-125.86993550066809,0.52459716796875,0.5284423828125,0.4287109375,-0.5115966796875,57.44784647054562,82.09598287569112,-37.52145024785534,0.9075697412491074,,,,3,0,2,3
1788938140.7317061,3402246600.0,-9.66015625,1.02734375,0.84765625,-0.046875,-0.14453125,-0.02734375,29.8125,-7.125,-32.0625,29.8125,-7.125,-32.0625,-0.01038325614695346,-0.6774486181506998,0.07229907356770901,0.7319346977147245,59.1313307393664,81.96993328824546,-125.8995724260405,0.52459716796875,0.5284423828125,0.4287109375,-0.5115966796875,57.44784647054562,82.09598287569112,-37.52145024785534,0.9069165513375735,,,,3,0,2,3
1788938140.7317061,3402251329.0,-9.66015625,0.98828125,0.88671875,-0.046875,-0.14453125,-0.02734375,29.8125,-7.125,-32.0625,29.8125,-7.125,-32.0625,-0.010282389933537833,-0.6770885206019992,0.07219058511070534,0.7322799513489529,58.72448319666239,81.95240373006337,-126.30585433943037,0.52459716796875,0.5284423828125,0.4287109375,-0.5115966796875,57.44784647054562,82.09598287569112,-37.52145024785534,0.9001660099757722,,,,3,0,2,3
1788938140.7477,3402254735.0,-9.6953125,0.953125,0.88671875,-0.041015625,-0.1328125,-0.02734375,29.8125,-7.125,-32.0625,29.8125,-7.125,-32.0625,-0.010187537393157567,-0.6768498773179065,0.07210495191106232,0.7325102958774719,58.44219819628247,81.9433024821202,-126.58891707976076,0.52496337890625,0.52789306640625,0.42852783203125,-0.51190185546875,56.87263772367015,82.04692453943063,-38.04785939295694,1.1635393466690394,,,,3,0,2,3
1788938140.750237,3402258518.0,-9.65625,0.9140625,0.92578125,-0.041015625,-0.11328125,-0.01953125,25.375,-7.125,-27.5625,25.375,-7.125,-27.5625,-0.010112802298582184,-0.6766183071123311,0.0721390877007132,0.732721877478639,58.222323484893096,81.92580470254184,-126.81769811792826,0.52496337890625,0.52789306640625,0.42852783203125,-0.51190185546875,56.87263772367015,82.04692453943063,-38.04785939295694,1.1608032744557855,,,,3,0,3,3
1788938140.755299,3402262801.0,-9.66015625,0.9140625,0.88671875,-0.041015625,-0.103515625,-0.005859375,25.375,-7.125,-27.5625,25.375,-7.125,-27.5625,-0.010040419925699795,-0.6763807867335072,0.07221289632767522,0.7329348667579173,58.01513396147002,81.9050317775662,-127.03683902314322,0.5252685546875,0.5274658203125,0.42840576171875,-0.51220703125,56.42770139965522,82.05431413143202,-38.521949055483105,0.5832040351580831,,,,3,0,3,3
1788938140.7572713,3402267184.0,-9.66015625,0.953125,0.88671875,-0.037109375,-0.08984375,0.001953125,25.375,-7.125,-27.5625,25.375,-7.125,-27.5625,-0.009993043491564423,-0.6761603287514713,0.07232190904875073,0.7331281541286094,57.84637998091638,81.88182635470962,-127.21838177382462,0.5252685546875,0.5274658203125,0.42840576171875,-0.51220703125,56.42770139965522,82.05431413143202,-38.521949055483105,0.5795800633341109,,,,3,0,3,3
1788938140.763571,3402270737.0,-9.73046875,1.02734375,0.88671875,-0.037109375,-0.08984375,0.001953125,26.3125,-6.6875,-27.375,26.3125,-6.6875,-27.375,-0.009965518057984648,-0.6759676214698133,0.07239157285076984,0.7332993408932474,57.69320500610794,81.86215897877955,-127.3795212749729,0.5252685546875,0.5274658203125,0.42840576171875,-0.51220703125,56.42770139965522,82.05431413143202,-38.521949055483105,0.5775446404675026,,,,3,0,3,3
1788938140.7624698,3402276320.0,-9.73046875,1.02734375,0.84765625,-0.015625,-0.076171875,0.0078125,26.3125,-6.6875,-27.375,26.3125,-6.6875,-27.375,-0.009879491613137692,-0.6757133888845057,0.07258571532188075,0.7335155933304306,57.52009559425858,81.83307247889226,-127.57550436156885,0.52557373046875,0.52716064453125,0.42822265625,-0.5123291015625,56.11793377377098,82.0068236727978,-38.79453150939535,0.8829225990003088,,,,3,0,3,3
1788938140.7664049,3402277850.0,-9.7265625,1.10546875,0.84765625,-0.0078125,-0.0703125,0.009765625,26.3125,-6.6875,-27.375,26.3125,-6.6875,-27.375,-0.009872329437077254,-0.6756493387194076,0.07265439985518132,0.7335678880520851,57.48912041676521,81.82355371983901,-127.61267731958117,0.52557373046875,0.52716064453125,0.42822265625,-0.5123291015625,56.11793377377098,82.0068236727978,-38.79453150939535,0.8834092842971728,,,,3,0,3,3
1788938140.7749634,3402282332.0,-9.76953125,1.10546875,0.88671875,-0.01171875,-0.060546875,0.00390625,26.3125,-6.6875,-27.375,26.3125,-6.6875,-27.375,-0.009848622317603282,-0.6754631004837743,0.07282027084785202,0.7337232534661398,57.38472722308265,81.79814340245679,-127.73256753120219,0.5257568359375,0.5269775390625,0.42803955078125,-0.512451171875,55.89836740806163,81.9679053847056,-38.991482636092606,1.1007701128229364,,,,3,0,3,3
1788938140.7773232,3402285985.0,-9.76953125,1.06640625,0.84765625,-0.01171875,-0.060546875,0.00390625,26.3125,-6.6875,-27.375,26.3125,-6.6875,-27.375,-0.0097987900065712,-0.6753245556760762,0.07296284679088279,0.7338372784231445,57.30607535015892,81.78015590319609,-127.82692348710427,0.5257568359375,0.5269775390625,0.42803955078125,-0.512451171875,55.89836740806163,81.9679053847056,-38.991482636092606,1.1025388334492445,,,,3,0,3,3
1788938140.7829716,3402290068.0,-9.84765625,1.10546875,0.76953125,-0.0078125,-0.05859375,0.001953125,26.0,-4.6875,-26.875,26.0,-4.6875,-26.875,-0.009756772996699468,-0.6752500247900485,0.07275834059252546,0.7339267220070078,57.14315418299228,81.78878792236215,-127.97660352259824,0.5257568359375,0.5269775390625,0.42803955078125,-0.512451171875,55.89836740806163,81.9679053847056,-38.991482636092606,1.099372590970971,,,,3,0,3,3
1788938140.7829716,3402293775.0,-9.76953125,1.14453125,0.76953125,-0.001953125,-0.060546875,-0.001953125,26.0,-4.6875,-26.875,26.0,-4.6875,-26.875,-0.009723951770519018,-0.6751776913476536,0.07257307156690877,0.7340120429201155,56.992596270050946,81.79577832792017,-128.11474233290016,0.52587890625,0.52685546875,0.42791748046875,-0.5125732421875,55.744800959851254,81.9595569639766,-39.15728088446215,0.9685786787087619,,,,3,0,3,3
1788938140.7810185,3402298357.0,-9.8046875,1.10546875,0.76953125,-0.001953125,-0.06640625,0.00390625,26.0,-4.6875,-26.875,26.0,-4.6875,-26.875,-0.009672886473380325,-0.6750814659114402,0.07235580377210393,0.7341226650299164,56.80196375461992,81.8036965295051,-128.2918344914266,0.52587890625,0.52685546875,0.42791748046875,-0.5125732421875,55.744800959851254,81.9595569639766,-39.15728088446215,0.9659494199195959,,,,3,0,3,3
1788938140.7973955,3402301740.0,-9.765625,1.10546875,0.9609375,-0.01171875,-0.0625,0.005859375,25.75,-4.1875,-26.5,25.75,-4.1875,-26.5,-0.009666708203974514,-0.674964449844434,0.0722159854247049,0.7342440994981426,56.63850024445039,81.80197533988624,-128.44443635431992,0.52606201171875,0.52667236328125,0.42779541015625,-0.5126953125,55.548497834169034,81.94692856397337,-39.358797468790335,0.8162258669039351,,,,3,0,3,3
1788938140.7994738,3402307223.0,-9.80859375,1.14453125,0.9609375,-0.01171875,-0.0546875,0.00390625,25.75,-4.1875,-26.5,25.75,-4.1875,-26.5,-0.009666619743308338,-0.6747882153178584,0.07198810404269096,0.7344284402222021,56.38799434399668,81.79972633771382,-128.67642618296134,0.52606201171875,0.52667236328125,0.42779541015625,-0.5126953125,55.548497834169034,81.94692856397337,-39.358797468790335,0.8126814426660337,,,,3,0,3,3
1788938140.8034089,3402309876.0,-9.76953125,1.14453125,0.9609375,-0.01171875,-0.0546875,0.00390625,25.0625,-6.0,-29.1875,25.0625,-6.0,-29.1875,-0.009664997120661812,-0.6746643107163096,0.07202054574196885,0.7345391049272826,56.29252352047688,81.78645340642755,-128.77470910946187,0.52606201171875,0.52667236328125,0.42779541015625,-0.5126953125,55.548497834169034,81.94692856397337,-39.358797468790335,0.8126377290715192,,,,3,0,3,3
1788938140.8064938,3402316559.0,-9.76953125,1.21875,0.92578125,-0.013671875,-0.041015625,-0.009765625,25.0625,-6.0,-29.1875,25.0625,-6.0,-29.1875,-0.00970233249148808,-0.6744048558485894,0.07215445983270875,0.7347636960807999,56.133604096382236,81.75195243356343,-128.9415920077106,0.52618408203125,0.5264892578125,0.42767333984375,-0.5128173828125,55.33831355228097,81.9129561361482,-39.53963807997204,1.1112257222465207,,,,3,0,3,3
1788938140.8104289,3402317112.0,-9.765625,1.14453125,0.88671875,-0.015625,-0.03125,-0.015625,25.0625,-6.0,-29.1875,25.0625,-6.0,-29.1875,-0.00969717169919062,-0.674385060603363,0.0721627248999755,0.7347811211721796,56.1183184474667,81.74995463106154,-128.95797581449634,0.52618408203125,0.5264892578125,0.42767333984375,-0.5128173828125,55.33831355228097,81.9129561361482,-39.53963807997204,1.1113820204401508,,,,3,0,3,3
1788938140.8104289,3402321642.0,-9.7265625,1.10546875,0.84765625,-0.015625,-0.03125,-0.015625,25.0625,-6.0,-29.1875,25.0625,-6.0,-29.1875,-0.009588250102897595,-0.6742356437904766,0.07223300778875283,0.7349127531130452,55.98551339359542,81.73890038314306,-129.1053890500753,0.52618408203125,0.5264892578125,0.42767333984375,-0.5128173828125,55.33831355228097,81.9129561361482,-39.53963807997204,1.1140389093238814,,,,3,0,3,3
1788938140.8104289,3402325548.0,-9.6953125,1.10546875,0.92578125,-0.01953125,-0.029296875,-0.017578125,25.0625,-6.0,-29.1875,25.0625,-6.0,-29.1875,-0.009541207026527802,-0.6740935848776585,0.07223255636303942,0.7350437143439322,55.84833271044094,81.72876333464173,-129.24639114513954,0.52630615234375,0.5263671875,0.42767333984375,-0.512939453125,55.22780148051525,81.95694794103744,-39.71742994750507,0.0,,,,3,0,3,3
1788938140.8104289,3402329607.0,-9.66015625,1.10546875,0.92578125,-0.01171875,-0.0234375,-0.009765625,28.75,-7.25,-32.9375,28.75,-7.25,-32.9375,-0.009502578307005929,-0.6739664614940913,0.07233011711821344,0.7351511844133274,55.76817002672253,81.71352580527943,-129.33767799921304,0.52630615234375,0.5263671875,0.42767333984375,-0.512939453125,55.22780148051525,81.95694794103744,-39.71742994750507,0.0,,,,3,0,3,3
1788938140.826235,3402333114.0,-9.66015625,1.1796875,0.92578125,-0.021484375,-0.0234375,-0.009765625,28.75,-7.25,-32.9375,28.75,-7.25,-32.9375,-0.009517590296695692,-0.6738641351451696,0.07242331999254735,0.7352356122776248,55.72393312860953,81.69739668369935,-129.38832571540615,0.5263671875,0.5262451171875,0.42767333984375,-0.51300048828125,55.11458379396703,81.95335161413087,-39.822668075690125,0.0,,,,3,0,3,3
1788938140.8223,3402337296.0,-9.65625,1.21875,1.0390625,-0.021484375,-0.017578125,-0.013671875,28.75,-7.25,-32.9375,28.75,-7.25,-32.9375,-0.00954233193287008,-0.673736739999243,0.07248478024600856,0.7353459768769821,55.64803039991672,81.68020425131334,-129.46727029437403,0.5263671875,0.5262451171875,0.42767333984375,-0.51300048828125,55.11458379396703,81.95335161413087,-39.822668075690125,0.0,,,,3,0,3,3
1788938140.826235,3402341250.0,-9.66015625,1.1796875,1.078125,-0.021484375,-0.017578125,-0.013671875,29.0,-7.8125,-33.3125,29.0,-7.8125,-33.3125,-0.009550307269803797,-0.6736196000948831,0.07255679689788819,0.7354460804321283,55.58060818181688,81.66440220826513,-129.5399520228059,0.5263671875,0.5262451171875,0.42767333984375,-0.51300048828125,55.11458379396703,81.95335161413087,-39.822668075690125,0.0,,,,3,0,2,3
1788938140.835634,3402346532.0,-9.58203125,1.1796875,1.078125,-0.013671875,0.0,-0.01953125,29.0,-7.8125,-33.3125,29.0,-7.8125,-33.3125,-0.009542169041088334,-0.6734983624790325,0.07265639814768597,0.7355473815848018,55.516723144128015,81.64758455563509,-129.6126538829684,0.52642822265625,0.526123046875,0.427734375,-0.51300048828125,55.03392536491387,81.94975993154837,-39.8821759277026,0.0,,,,3,0,2,3
1788938140.8421817,3402348162.0,-9.58203125,1.1796875,1.078125,-0.013671875,0.015625,-0.021484375,29.0,-7.8125,-33.3125,29.0,-7.8125,-33.3125,-0.009539264392586778,-0.6734704277444973,0.07268596723529056,0.7355700752175571,55.50451444368089,81.6433771285952,-129.62751730396914,0.52642822265625,0.526123046875,0.427734375,-0.51300048828125,55.03392536491387,81.94975993154837,-39.8821759277026,0.0,,,,3,0,2,3
1788938140.8421817,3402352068.0,-9.6171875,1.14453125,1.1171875,-0.01953125,0.033203125,-0.025390625,29.0,-7.8125,-33.3125,29.0,-7.8125,-33.3125,-0.009526153389982691,-0.6734243467631668,0.07272481647998173,0.7356085933811171,55.47774364964967,81.63756509806721,-129.65853286887346,0.5263671875,0.52606201171875,0.4278564453125,-0.51300048828125,55.001435998852024,81.95535547713723,-39.8933752055673,0.36985059740604087,,,,3,0,2,3
1788938140.8402286,3402356298.0,-9.578125,1.14453125,1.1171875,-0.01953125,0.033203125,-0.025390625,29.0,-7.8125,-33.3125,29.0,-7.8125,-33.3125,-0.009513274843182443,-0.6733743745535293,0.07276659287597105,0.7356503736542408,55.44901508038394,81.63119549932142,-129.6917272429863,0.5263671875,0.52606201171875,0.4278564453125,-0.51300048828125,55.001435998852024,81.95535547713723,-39.8933752055673,0.37543476619358546,,,,3,0,2,3
1788938140.8421817,3402360004.0,-9.58203125,1.10546875,1.0390625,-0.021484375,0.041015625,-0.025390625,25.75,-7.0625,-27.1875,25.75,-7.0625,-27.1875,-0.009498992473767018,-0.6733560359973079,0.07284295608056324,0.7356597866387837,55.461220843547174,81.62581300196334,-129.68691111951662,0.5263671875,0.52606201171875,0.4278564453125,-0.51300048828125,55.001435998852024,81.95535547713723,-39.8933752055673,0.38161015583290614,,,,3,0,3,3
1788938140.8514323,3402363910.0,-9.58203125,1.10546875,0.9609375,-0.01953125,0.05859375,-0.013671875,25.75,-7.0625,-27.1875,25.75,-7.0625,-27.1875,-0.009498057197603651,-0.6733766070629117,0.07296600414795758,0.735628774728526,55.52994035163012,81.62042496649245,-129.6282926449554,0.5262451171875,0.52606201171875,0.4281005859375,-0.51287841796875,55.07730063367513,81.96521426129533,-39.77677096663184,0.8689077648714418,,,,3,0,3,3
1788938140.85798,3402367893.0,-9.58203125,1.10546875,0.9609375,-0.025390625,0.060546875,-0.017578125,26.25,-4.8125,-27.5625,26.25,-4.8125,-27.5625,-0.009491785420089969,-0.6734109792200927,0.07276215568503279,0.7356175825627347,55.47174914145358,81.63627703397394,-129.67036329789752,0.5262451171875,0.52606201171875,0.4281005859375,-0.51287841796875,55.07730063367513,81.96521426129533,-39.77677096663184,0.8621965286225879,,,,3,0,3,3
1788938140.85798,3402372576.0,-9.6171875,1.14453125,0.9609375,-0.041015625,0.068359375,-0.017578125,26.25,-4.8125,-27.5625,26.25,-4.8125,-27.5625,-0.009526211466256373,-0.673458474898299,0.07250405556714427,0.7355991407071338,55.41398811514155,81.65399974639071,-129.70427640874732,0.526123046875,0.526123046875,0.4283447265625,-0.5126953125,55.2245364442896,81.97436651539947,-39.589734705805476,1.144899462355083,,,,3,0,3,3
1788938140.85798,3402375953.0,-9.62109375,1.10546875,0.9609375,-0.041015625,0.068359375,-0.017578125,26.25,-4.8125,-27.5625,26.25,-4.8125,-27.5625,-0.009539625178551683,-0.673496131508548,0.07231293185767887,0.7355833034270286,55.369583246246904,81.66813085962747,-129.73200144052805,0.526123046875,0.526123046875,0.4283447265625,-0.5126953125,55.2245364442896,81.97436651539947,-39.589734705805476,1.140318291720207,,,,3,0,3,3
1788938140.85798,3402379835.0,-9.66015625,1.10546875,1.0,-0.037109375,0.076171875,-0.017578125,26.5625,-4.9375,-25.5,26.5625,-4.9375,-25.5,-0.009547789606185365,-0.6735317755324085,0.07213402867441708,0.735568126667405,55.326933842729034,81.6816761538595,-129.75939407257928,0.526123046875,0.526123046875,0.4283447265625,-0.5126953125,55.2245364442896,81.97436651539947,-39.589734705805476,1.136480209427076,,,,3,0,3,3
1788938140.877296,3402383642.0,-9.66015625,1.06640625,1.0390625,-0.021484375,0.087890625,-0.015625,26.5625,-4.9375,-25.5,26.5625,-4.9375,-25.5,-0.009532805031592628,-0.6735822532072911,0.07198612077782392,0.7355365879463637,55.30292347656366,81.69624455833176,-129.7725478891463,0.5260009765625,0.52618408203125,0.4287109375,-0.512451171875,55.426910326069084,82.00987574214878,-39.362200335527916,1.1492822944061807,,,,3,0,3,3
1788938140.8781855,3402387225.0,-9.6953125,1.06640625,0.9609375,-0.013671875,0.091796875,-0.015625,26.4375,-6.0625,-26.625,26.4375,-6.0625,-26.625,-0.009493723745134786,-0.6736128704831935,0.0720029020622855,0.7355074112634437,55.32428664948814,81.70062583818176,-129.75571343960917,0.5260009765625,0.52618408203125,0.4287109375,-0.512451171875,55.426910326069084,82.00987574214878,-39.362200335527916,1.1494137037181231,,,,3,0,3,3
1788938140.8781855,3402391378.0,-9.7265625,1.02734375,0.92578125,-0.013671875,0.091796875,-0.015625,26.4375,-6.0625,-26.625,26.4375,-6.0625,-26.625,-0.009401131303485456,-0.6736570202410118,0.072005399992964,0.7354679192065884,55.33493016115604,81.71056450824474,-129.75277079999756,0.5260009765625,0.52618408203125,0.4287109375,-0.512451171875,55.426910326069084,82.00987574214878,-39.362200335527916,1.1500301639385675,,,,3,0,3,3
1788938140.8878362,3402395084.0,-9.69921875,1.02734375,0.9609375,-0.025390625,0.107421875,-0.01171875,26.4375,-6.0625,-26.625,26.4375,-6.0625,-26.625,-0.009362217558366671,-0.6737116907213214,0.07198749892060596,0.7354200885663676,55.362300212168634,81.71927539819592,-129.72708148368324,0.52581787109375,0.5263671875,0.42901611328125,-0.51220703125,55.71319711807471,82.04895800294413,-39.07223668428802,1.092795619546392,,,,3,0,3,3
1788938140.8878362,3402399067.0,-9.65625,1.02734375,0.92578125,-0.01953125,0.115234375,-0.005859375,26.3125,-4.3125,-27.125,26.3125,-4.3125,-27.125,-0.009355797896773,-0.6738538638574451,0.07177545468616935,0.7353106304921074,55.392429463216025,81.74576810736063,-129.68014594262826,0.52581787109375,0.5263671875,0.42901611328125,-0.51220703125,55.71319711807471,82.04895800294413,-39.07223668428802,1.0849247584230783,,,,3,0,3,3
1788938140.8956852,3402403750.0,-9.69921875,1.06640625,0.84765625,-0.0234375,0.12109375,-0.005859375,26.3125,-4.3125,-27.125,26.3125,-4.3125,-27.125,-0.009360818682145161,-0.6740574434558623,0.07150133888563957,0.7351506624719235,55.452996783740616,81.78102048917475,-129.5967677429739,0.525634765625,0.526611328125,0.429443359375,-0.51190185546875,56.11727811312408,82.14091124300614,-38.72224651071314,0.0,,,,3,0,3,3
1788938140.8956852,3402407532.0,-9.6953125,1.06640625,0.80859375,-0.00390625,0.125,-0.001953125,26.1875,-5.375,-27.9375,26.1875,-5.375,-27.9375,-0.009287570648210477,-0.6742277748787691,0.07133081732920502,0.7350119475985585,55.50553286463973,81.81195113447897,-129.53622409859034,0.525634765625,0.526611328125,0.429443359375,-0.51190185546875,56.11727811312408,82.14091124300614,-38.72224651071314,0.0,,,,3,0,3,3
1788938140.8956852,3402411409.0,-9.6953125,1.06640625,0.76953125,-0.00390625,0.125,-0.001953125,26.1875,-5.375,-27.9375,26.1875,-5.375,-27.9375,-0.009210001592579368,-0.6744449515682307,0.07116027118269161,0.7348301837703711,55.59811631408717,81.84754378194062,-129.43596853265987,0.525634765625,0.526611328125,0.429443359375,-0.51190185546875,56.11727811312408,82.14091124300614,-38.72224651071314,0.0,,,,3,0,3,3
1788938140.8956852,3402414815.0,-9.66015625,1.10546875,0.80859375,-0.00390625,0.119140625,-0.001953125,26.1875,-5.375,-27.9375,26.1875,-5.375,-27.9375,-0.00917122711498077,-0.6745601037369316,0.07101781971725034,0.7347387456247516,55.62604520129973,81.86939292191214,-129.3995411938422,0.525390625,0.52685546875,0.42974853515625,-0.51153564453125,56.47919851500906,82.13046585313961,-38.28186677583299,1.05057729807551,,,,3,0,3,3
1788938140.9129276,3402419375.0,-9.65625,1.14453125,0.80859375,0.0,0.123046875,-0.001953125,30.375,-7.25,-32.6875,30.375,-7.25,-32.6875,-0.009194479341414931,-0.6747293134475914,0.0712367057433219,0.7345618740984462,55.875276708429425,81.87046303772598,-129.1662135754409,0.525390625,0.52685546875,0.42974853515625,-0.51153564453125,56.47919851500906,82.13046585313961,-38.28186677583299,1.0461210669457275,,,,3,0,2,3
1788938140.9129276,3402422881.0,-9.66015625,1.10546875,0.76953125,-0.0078125,0.125,-0.001953125,30.375,-7.25,-32.6875,30.375,-7.25,-32.6875,-0.009190374828396936,-0.6748875511669992,0.07139187793356012,0.7344014774327761,56.07953487350945,81.87601736381984,-128.97488905272078,0.525146484375,0.52716064453125,0.43011474609375,-0.51123046875,56.91517768820118,82.19992397798957,-37.88007486011779,0.48160421527893277,,,,3,0,2,3
1788938140.91096,3402426464.0,-9.66015625,1.1796875,0.80859375,-0.005859375,0.126953125,0.005859375,29.625,-7.375,-33.4375,29.625,-7.375,-33.4375,-0.009237294498645037,-0.6750223725413735,0.071564300545592,0.7342601853882454,56.28617517082662,81.87495948192598,-128.77845694433276,0.525146484375,0.52716064453125,0.43011474609375,-0.51123046875,56.91517768820118,82.19992397798957,-37.88007486011779,0.4730606714956271,,,,3,0,2,3
1788938140.9129276,3402430640.0,-9.69921875,1.21875,0.76953125,-0.005859375,0.126953125,0.005859375,29.625,-7.375,-33.4375,29.625,-7.375,-33.4375,-0.009307332946233048,-0.6752036725370338,0.07176529004283543,0.7340729645552939,56.55310021763405,81.87481860561564,-128.52218025234893,0.525146484375,0.52716064453125,0.43011474609375,-0.51123046875,56.91517768820118,82.19992397798957,-37.88007486011779,0.4627751409285728,,,,3,0,2,3
1788938140.9273655,3402434346.0,-9.65625,1.2578125,0.76953125,-0.0078125,0.12890625,0.001953125,29.625,-7.375,-33.4375,29.625,-7.375,-33.4375,-0.009381758181373845,-0.6753628698375177,0.07193351024986555,0.7339090861689822,56.787927808003154,81.87422328309312,-128.29498123722803,0.52490234375,0.52752685546875,0.430419921875,-0.5108642578125,57.40557861060345,82.24158557333992,-37.39724636396201,0.0603887281725381,,,,3,0,2,3
1788938140.9282262,3402438506.0,-9.73046875,1.296875,0.76953125,-0.015625,0.1328125,-0.00390625,30.0,-6.875,-33.0625,30.0,-6.875,-33.0625,-0.00950856638746313,-0.67554540303627,0.07208745831099411,0.7337243310372631,57.05324246031349,81.8730613773032,-128.03187706291016,0.52490234375,0.52752685546875,0.430419921875,-0.5108642578125,57.40557861060345,82.24158557333992,-37.39724636396201,0.0,,,,3,0,2,3
1788938140.9282262,3402442212.0,-9.69921875,1.3359375,0.734375,-0.021484375,0.130859375,-0.01171875,30.0,-6.875,-33.0625,30.0,-6.875,-33.0625,-0.009625269084983406,-0.6757222194311348,0.07220177783451996,0.7335487302419913,57.293921790963985,81.87432923046687,-127.79099995086511,0.524658203125,0.52783203125,0.43084716796875,-0.51043701171875,57.89921280180648,82.28368690608829,-36.88450701226513,0.24594976417652278,,,,3,0,2,3
1788938140.9393682,3402446242.0,-9.7265625,1.375,0.734375,-0.021484375,0.130859375,-0.01171875,30.0,-6.875,-33.0625,30.0,-6.875,-33.0625,-0.009758351174483456,-0.6759114826693642,0.07232342971122382,0.7333605959504934,57.55378531364166,81.87503928897021,-127.5302047684664,0.524658203125,0.52783203125,0.43084716796875,-0.51043701171875,57.89921280180648,82.28368690608829,-36.88450701226513,0.2107402401694546,,,,3,0,2,3
1788938140.9433033,3402450625.0,-9.7265625,1.41015625,0.734375,-0.015625,0.13671875,-0.015625,29.4375,-5.875,-30.3125,29.4375,-5.875,-30.3125,-0.009961250129838084,-0.6761274127986848,0.07239204809843815,0.7331520214322,57.83630678441598,81.87663981154772,-127.2367595851234,0.524658203125,0.52783203125,0.43084716796875,-0.51043701171875,57.89921280180648,82.28368690608829,-36.88450701226513,0.1523747109394943,,,,3,0,2,3
1788938140.9451516,3402454731.0,-9.765625,1.44921875,0.734375,-0.025390625,0.1328125,-0.02734375,29.4375,-5.875,-30.3125,29.4375,-5.875,-30.3125,-0.010143712493035289,-0.6763220478494445,0.07242972784112417,0.7329662524389872,58.08107464242361,81.87945136364067,-126.98021034372466,0.52435302734375,0.528076171875,0.4312744140625,-0.5101318359375,58.29926300889811,82.33163340990662,-36.47057623859855,0.3436456844022196,,,,3,0,2,3
1788938140.9451516,3402457737.0,-9.76953125,1.48828125,0.734375,-0.033203125,0.130859375,-0.041015625,26.0625,-7.5625,-27.1875,26.0625,-7.5625,-27.1875,-0.010188013467828454,-0.6764629358504347,0.07249274706729295,0.7328293815239859,58.247734839633054,81.88499176297783,-126.81505477793621,0.52435302734375,0.528076171875,0.4312744140625,-0.5101318359375,58.29926300889811,82.33163340990662,-36.47057623859855,0.33069266584134116,,,,3,0,3,3
1788938140.9451516,3402462220.0,-9.80859375,1.44921875,0.6953125,-0.037109375,0.13671875,-0.046875,26.0625,-7.5625,-27.1875,26.0625,-7.5625,-27.1875,-0.010244638831304267,-0.6766922438277739,0.07257112847942512,0.7326090948314601,58.50520855276563,81.89642104715041,-126.55931425070952,0.5240478515625,0.52825927734375,0.43182373046875,-0.509765625,58.70466257282863,82.38005361841034,-36.02454143685656,0.7037028246793389,,,,3,0,3,3
1788938140.9451516,3402465896.0,-9.8046875,1.44921875,0.734375,-0.037109375,0.13671875,-0.046875,26.0625,-7.5625,-27.1875,26.0625,-7.5625,-27.1875,-0.01029179436845304,-0.6768719012947516,0.07263689557603635,0.732435928670475,58.71005896141769,81.90480524445461,-126.35595090586366,0.5240478515625,0.52825927734375,0.43182373046875,-0.509765625,58.70466257282863,82.38005361841034,-36.02454143685656,0.6951529261949645,,,,3,0,3,3
1788938140.9618652,3402469579.0,-9.765625,1.44921875,0.734375,-0.046875,0.134765625,-0.064453125,26.125,-5.0625,-26.1875,26.125,-5.0625,-26.1875,-0.01044216005674199,-0.6770408265243635,0.07257364264563324,0.7322839250630182,58.882415821897574,81.91339705655069,-126.1661978727962,0.5240478515625,0.52825927734375,0.43182373046875,-0.509765625,58.70466257282863,82.38005361841034,-36.02454143685656,0.679091432077154,,,,3,0,3,3
1788938140.9618652,3402474462.0,-9.76953125,1.41015625,0.65625,-0.05078125,0.140625,-0.078125,26.125,-5.0625,-26.1875,26.125,-5.0625,-26.1875,-0.010614293155439668,-0.677352787243359,0.07244367852478274,0.7320057730894347,59.16666766986467,81.93699311824545,-125.85730968624928,0.52374267578125,0.5283203125,0.43243408203125,-0.509521484375,58.99384950125591,82.45824089518312,-35.72180650796416,0.4227587909214336,,,,3,0,3,3
1788938140.958011,3402477645.0,-9.80859375,1.41015625,0.6171875,-0.05859375,0.13671875,-0.0859375,26.6875,-5.1875,-26.875,26.6875,-5.1875,-26.875,-0.010707641717084885,-0.6775685827818515,0.07233653963589019,0.7318152684040946,59.35016269047331,81.9560252055267,-125.65745497777256,0.52374267578125,0.5283203125,0.43243408203125,-0.509521484375,58.99384950125591,82.45824089518312,-35.72180650796416,0.39083920714461673,,,,3,0,3,3
1788938140.9618652,3402481998.0,-9.76953125,1.3359375,0.6171875,-0.05859375,0.13671875,-0.0859375,26.6875,-5.1875,-26.875,26.6875,-5.1875,-26.875,-0.010820775696393059,-0.6778841064044142,0.07214545428614781,0.7315402125129299,59.59974602810585,81.98747724645175,-125.38304082344469,0.52374267578125,0.5283203125,0.43243408203125,-0.509521484375,58.99384950125591,82.45824089518312,-35.72180650796416,0.3430469556015185,,,,3,0,3,3
1788938140.9783607,3402485704.0,-9.76953125,1.2578125,0.578125,-0.06640625,0.134765625,-0.1015625,26.6875,-5.1875,-26.875,26.6875,-5.1875,-26.875,-0.010834427361939927,-0.6781757205923357,0.07189427803384749,0.7312944140144904,59.776737961474716,82.02734002650435,-125.18439681479532,0.52337646484375,0.5283203125,0.43316650390625,-0.50921630859375,59.27526207682716,82.51409685574532,-35.363725422288795,0.9712207204883627,,,,3,0,3,3
1788938140.9788673,3402489487.0,-9.6953125,1.1796875,0.578125,-0.076171875,0.126953125,-0.107421875,25.625,-6.75,-27.8125,25.625,-6.75,-27.8125,-0.010801994832592298,-0.6783950793921959,0.07181360109220529,0.7310993365215582,59.94290634081277,82.05322420581888,-125.01422815889718,0.52337646484375,0.5283203125,0.43316650390625,-0.50921630859375,59.27526207682716,82.51409685574532,-35.363725422288795,0.9617576856210789,,,,3,0,3,3
1788938140.9788673,3402493393.0,-9.69921875,1.10546875,0.54296875,-0.07421875,0.126953125,-0.115234375,25.625,-6.75,-27.8125,25.625,-6.75,-27.8125,-0.010728397342874233,-0.6786380753602302,0.07170326862639782,0.7308856992923766,60.10929535119774,82.0857322683971,-124.8447551250621,0.52301025390625,0.52825927734375,0.4339599609375,-0.509033203125,59.502583710892736,82.62802562973542,-35.13183306974964,0.52139170720647,,,,3,0,3,3
1788938140.9920154,3402497376.0,-9.6953125,0.98828125,0.46484375,-0.064453125,0.123046875,-0.115234375,27.0,-6.1875,-26.9375,27.0,-6.1875,-26.9375,-0.010595130933484995,-0.6789244448033959,0.07147897601934146,0.7306436186241068,60.256087025965094,82.13321211182806,-124.69042176670979,0.52301025390625,0.52825927734375,0.4339599609375,-0.509033203125,59.502583710892736,82.62802562973542,-35.13183306974964,0.4887554985761757,,,,3,0,3,3
1788938140.9940119,3402501053.0,-9.6953125,0.9140625,0.46484375,-0.064453125,0.123046875,-0.115234375,27.0,-6.1875,-26.9375,27.0,-6.1875,-26.9375,-0.010448738842587058,-0.6791864091528779,0.07124668170844213,0.7304249145697008,60.37419070018888,82.18002837508692,-124.5651962092636,0.52301025390625,0.52825927734375,0.4339599609375,-0.509033203125,59.502583710892736,82.62802562973542,-35.13183306974964,0.46047927148755885,,,,3,0,3,3
1788938140.995564,3402504859.0,-9.7265625,0.875,0.42578125,-0.056640625,0.111328125,-0.107421875,27.0,-6.1875,-26.9375,27.0,-6.1875,-26.9375,-0.010297053275516818,-0.6794414417653729,0.07101825738129948,0.7302120959174505,60.48718184516983,82.22635441430174,-124.44583076014814,0.52264404296875,0.52813720703125,0.43475341796875,-0.50885009765625,59.67194508099506,82.71510520587843,-34.91460266647314,0.6122319019323794,,,,3,0,3,3
1788938140.995564,3402509418.0,-9.73046875,0.9140625,0.34765625,-0.041015625,0.103515625,-0.1015625,26.5,-4.875,-27.875,26.5,-4.875,-27.875,-0.010138151507834578,-0.6797324640704895,0.07066141908740849,0.7299780537969743,60.58276922623056,82.28445450764914,-124.33398420825408,0.52264404296875,0.52813720703125,0.43475341796875,-0.50885009765625,59.67194508099506,82.71510520587843,-34.91460266647314,0.5808299855030385,,,,3,0,3,3
1788938140.995564,3402512725.0,-9.765625,0.875,0.34765625,-0.029296875,0.09375,-0.099609375,26.5,-4.875,-27.875,26.5,-4.875,-27.875,-0.010005263900001192,-0.6799292610148806,0.07041584866324281,0.7298203223856435,60.63940299464962,82.32575456463091,-124.26807175095958,0.522216796875,0.528076171875,0.4354248046875,-0.5087890625,59.81762032880823,82.807479638089,-34.755180474830574,0.46712669154661,,,,3,0,3,3
1788938141.0030208,3402516507.0,-9.8046875,0.875,0.34765625,-0.013671875,0.083984375,-0.09375,30.125,-4.25,-31.6875,30.125,-4.25,-31.6875,-0.00985578182418027,-0.6801244072970744,0.07012188204405272,0.7296688124224835,60.67049534784715,82.3711954607089,-124.22510509005335,0.522216796875,0.528076171875,0.4354248046875,-0.5087890625,59.81762032880823,82.807479638089,-34.755180474830574,0.4362650065236985,,,,3,0,3,3
1788938141.0052032,3402520584.0,-9.84765625,0.875,0.3125,-0.013671875,0.083984375,-0.09375,30.125,-4.25,-31.6875,30.125,-4.25,-31.6875,-0.009696146355179033,-0.6803390987203066,0.06981101689133712,0.7295005945295023,60.71192735963186,82.4200487653458,-124.17124233521638,0.522216796875,0.528076171875,0.4354248046875,-0.5087890625,59.81762032880823,82.807479638089,-34.755180474830574,0.40683418569885954,,,,3,0,3,3
1788938141.011751,3402525367.0,-9.84375,0.9140625,0.2734375,-0.0078125,0.07421875,-0.0859375,30.125,-4.25,-31.6875,30.125,-4.25,-31.6875,-0.009520261187191277,-0.6805804365057886,0.0694798806774665,0.7293093858257708,60.76804183371843,82.47353574386743,-124.10235895499615,0.5218505859375,0.52801513671875,0.4359130859375,-0.50872802734375,59.89807352106109,82.83689217379796,-34.60580013030679,1.1254445494135792,,,,3,0,3,3
1788938141.011751,3402528550.0,-9.84765625,0.9140625,0.3125,-0.0078125,0.06640625,-0.0859375,29.8125,-5.6875,-31.875,29.8125,-5.6875,-31.875,-0.009389867175463756,-0.680743843885327,0.06930718380022013,0.7291749883809368,60.824775621120466,82.50717471809853,-124.04209310171368,0.5218505859375,0.52801513671875,0.4359130859375,-0.50872802734375,59.89807352106109,82.83689217379796,-34.60580013030679,1.1201131824399848,,,,3,0,3,3
1788938141.0284088,3402532932.0,-9.88671875,0.98828125,0.3125,-0.0078125,0.0546875,-0.08203125,29.8125,-5.6875,-31.875,29.8125,-5.6875,-31.875,-0.009232542275019203,-0.6809547552262892,0.06909341781715686,0.7290003299808502,60.905900666109495,82.54923878995979,-123.95626418355403,0.52154541015625,0.52801513671875,0.43634033203125,-0.5087890625,60.008909922952995,82.94991831174396,-34.56828574953778,0.0,,,,3,0,3,3
1788938141.0264556,3402536085.0,-9.84765625,1.02734375,0.34765625,-0.0078125,0.0546875,-0.08203125,29.8125,-5.6875,-31.875,29.8125,-5.6875,-31.875,-0.00912624958303694,-0.6811076245632233,0.06894356040786881,0.72887303476578,60.96974797930776,82.57885832784022,-123.88879457246337,0.52154541015625,0.52801513671875,0.43634033203125,-0.5087890625,60.008909922952995,82.94991831174396,-34.56828574953778,0.0,,,,3,0,3,3
1788938141.0284088,3402540668.0,-9.88671875,1.02734375,0.34765625,0.001953125,0.04296875,-0.083984375,29.125,-4.75,-31.875,29.125,-4.75,-31.875,-0.008959210667116243,-0.6812958516127199,0.0686635195067325,0.7287256110556767,60.99846650920665,82.62404664888209,-123.85076848064547,0.52154541015625,0.52801513671875,0.43634033203125,-0.5087890625,60.008909922952995,82.94991831174396,-34.56828574953778,0.0,,,,3,0,3,3
1788938141.03572,3402544375.0,-9.8828125,1.06640625,0.38671875,0.0,0.02734375,-0.0859375,29.125,-4.75,-31.875,29.125,-4.75,-31.875,-0.008831523444138657,-0.6814259560641625,0.06842689699985603,0.7286277721598793,60.99687593696138,82.65893808002978,-123.84341113767327,0.521240234375,0.5279541015625,0.4366455078125,-0.5089111328125,59.98476121663094,83.00550365813965,-34.60148262648501,0.0,,,,3,0,3,3
1788938141.0450857,3402548557.0,-9.80859375,1.02734375,0.42578125,0.001953125,0.017578125,-0.0859375,29.8125,-4.375,-29.375,29.8125,-4.375,-29.375,-0.008668522895884751,-0.681540496927115,0.06813423671529911,0.7285500213069577,60.94480505978104,82.69864653230789,-123.88483777665392,0.521240234375,0.5279541015625,0.4366455078125,-0.5089111328125,59.98476121663094,83.00550365813965,-34.60148262648501,0.0,,,,3,0,3,3
1788938141.045593,3402552064.0,-9.84765625,1.02734375,0.46484375,0.0,0.009765625,-0.083984375,29.8125,-4.375,-29.375,29.8125,-4.375,-29.375,-0.008534717294761676,-0.6816186661995739,0.06787990325147461,0.7285022108570314,60.87903560684718,82.73086099731958,-123.94072619316591,0.52093505859375,0.52777099609375,0.4368896484375,-0.509033203125,59.796408559724156,82.97280267497713,-34.673018576771604,1.3656157471826607,,,,3,0,3,3
1788938141.04364,3402556017.0,-9.765625,0.98828125,0.50390625,0.0,0.009765625,-0.083984375,29.8125,-4.375,-29.375,29.8125,-4.375,-29.375,-0.008375645698950562,-0.6816926045944321,0.06758334534720845,0.7284624443525312,60.78260595075614,82.76721105059659,-124.02588653001284,0.52093505859375,0.52777099609375,0.4368896484375,-0.509033203125,59.796408559724156,82.97280267497713,-34.673018576771604,1.3623272837171054,,,,3,0,3,3
1788938141.045593,3402560200.0,-9.765625,0.953125,0.54296875,-0.01171875,0.0,-0.080078125,26.3125,-4.75,-27.1875,26.3125,-4.75,-27.1875,-0.008188031686786664,-0.6817579406156896,0.06727487365384426,0.7284319857882474,60.66236318702066,82.8055711658279,-124.13620689943659,0.52093505859375,0.52777099609375,0.4368896484375,-0.509033203125,59.796408559724156,82.97280267497713,-34.673018576771604,1.360519147041647,,,,3,0,3,3
1788938141.045593,3402563706.0,-9.7265625,0.98828125,0.6171875,-0.015625,0.001953125,-0.078125,26.3125,-4.75,-27.1875,26.3125,-4.75,-27.1875,-0.008048460700463186,-0.6817689334818969,0.06699991550167542,0.7284485945775983,60.512371067986265,82.8339309216751,-124.2751231426515,0.520751953125,0.527587890625,0.4371337890625,-0.50921630859375,59.62392269626585,83.02029869505448,-34.852216640011676,1.2801187055908756,,,,3,0,3,3
1788938141.061602,3402567489.0,-9.69921875,0.9140625,0.578125,-0.033203125,0.001953125,-0.076171875,26.625,-5.75,-27.25,26.625,-5.75,-27.25,-0.007830422852482451,-0.6818113879532361,0.06692795185878929,0.7284178505468001,60.45908372096402,82.85705828270211,-124.34021963393236,0.520751953125,0.527587890625,0.4371337890625,-0.50921630859375,59.62392269626585,83.02029869505448,-34.852216640011676,1.2829031486299731,,,,3,0,3,3
1788938141.061602,3402575948.0,-9.69921875,0.875,0.578125,-0.033203125,0.0,-0.068359375,26.625,-5.75,-27.25,26.625,-5.75,-27.25,-0.007327459701554331,-0.681895723221533,0.06669580268212799,0.7283654308731922,60.29114246360624,82.91354163413624,-124.53001879493414,0.5206298828125,0.52734375,0.43743896484375,-0.5093994140625,59.425664199900865,83.09401560175138,-35.082876559084134,0.8741973011555544,,,,3,0,3,3
1788938141.054636,3402579731.0,-9.69921875,0.8359375,0.578125,-0.029296875,0.0,-0.05859375,26.875,-5.9375,-25.5625,26.875,-5.9375,-25.5625,-0.007137170667033584,-0.6819241206548344,0.06667938908677656,0.7283422365447544,60.25468307935237,82.92997885921737,-124.58056363998895,0.5206298828125,0.52734375,0.43743896484375,-0.5093994140625,59.425664199900865,83.09401560175138,-35.082876559084134,0.8801978171411108,,,,3,0,3,3
1788938141.0771503,3402583437.0,-9.69921875,0.8359375,0.6171875,-0.01953125,-0.005859375,-0.05078125,26.875,-5.9375,-25.5625,26.875,-5.9375,-25.5625,-0.006940324131387012,-0.6819103270082952,0.06669334006322022,0.7283557758483162,60.18392801831215,82.94136022269642,-124.6684173955159,0.52056884765625,0.52716064453125,0.4376220703125,-0.50946044921875,59.27813027105844,83.10118731073284,-35.192860523771415,1.1148550458060906,,,,3,0,3,3
1788938141.0779579,3402587420.0,-9.69921875,0.8359375,0.6171875,-0.021484375,-0.00390625,-0.0390625,26.75,-4.125,-26.0,26.75,-4.125,-26.0,-0.006839724280631491,-0.681915626542281,0.06642601027202823,0.7283761951138668,60.039039982759945,82.9659483198428,-124.79969381558949,0.52056884765625,0.52716064453125,0.4376220703125,-0.50946044921875,59.27813027105844,83.10118731073284,-35.192860523771415,1.1125520438149412,,,,3,0,3,3
1788938141.0779579,3402591773.0,-9.6953125,0.796875,0.6171875,-0.021484375,-0.00390625,-0.0390625,26.75,-4.125,-26.0,26.75,-4.125,-26.0,-0.00672327231493143,-0.6819219523432951,0.0661362783264154,0.728397721859987,59.87923646010451,82.99310973702073,-124.94534752893892,0.52056884765625,0.52716064453125,0.4376220703125,-0.50946044921875,59.27813027105844,83.10118731073284,-35.192860523771415,1.111378666997063,,,,3,0,3,3
1788938141.0877883,3402595679.0,-9.66015625,0.796875,0.6171875,-0.013671875,-0.005859375,-0.017578125,26.75,-4.125,-26.0,26.75,-4.125,-26.0,-0.006639133207800789,-0.6819213147086691,0.0659160082913663,0.7284190567984763,59.75252003239717,83.01296893823738,-125.06095201376358,0.52056884765625,0.52703857421875,0.437744140625,-0.509521484375,59.185457966375594,83.13324339562553,-35.302620763032934,0.8405484031172283,,,,3,0,3,3
1788938141.09375,3402599262.0,-9.7265625,0.8359375,0.65625,0.0,-0.00390625,-0.013671875,26.5,-5.5,-25.875,26.5,-5.5,-25.875,-0.006459994702491946,-0.6818742910052423,0.06590297475604559,0.7284658658117387,59.637633721377966,83.02197777153468,-125.1893113867328,0.52056884765625,0.52703857421875,0.437744140625,-0.509521484375,59.185457966375594,83.13324339562553,-35.302620763032934,0.8480907879108449,,,,3,0,3,3
1788938141.0932207,3402603545.0,-9.69921875,0.8359375,0.6171875,0.005859375,-0.001953125,-0.00390625,26.5,-5.5,-25.875,26.5,-5.5,-25.875,-0.006232095158582677,-0.681860972698095,0.06592288355124161,0.7284785160356011,59.5580225806244,83.03502433612027,-125.28902364445315,0.5205078125,0.5269775390625,0.43780517578125,-0.50958251953125,59.11656981656104,83.13910857993584,-35.36305802701098,0.9456885864409975,,,,3,0,3,3
1788938141.0932062,3402607128.0,-9.69921875,0.8359375,0.578125,0.013671875,-0.00390625,0.009765625,26.4375,-4.0,-28.125,26.4375,-4.0,-28.125,-0.00617503510868126,-0.6818735196270629,0.06578263745003556,0.7284799357449216,59.48931431434374,83.0489633709187,-125.35093714968767,0.5205078125,0.5269775390625,0.43780517578125,-0.50958251953125,59.11656981656104,83.13910857993584,-35.36305802701098,0.9457245529059647,,,,3,0,3,3
1788938141.0951738,3402610428.0,-9.69921875,0.8359375,0.6171875,0.013671875,-0.00390625,0.009765625,26.4375,-4.0,-28.125,26.4375,-4.0,-28.125,-0.006123219438435385,-0.6818741680840213,0.06565396366267998,0.7284913741004846,59.414429007099585,83.06077932833553,-125.41954745859634,0.5205078125,0.5269775390625,0.43780517578125,-0.50958251953125,59.11656981656104,83.13910857993584,-35.36305802701098,0.9460283314437843,,,,3,0,3,3
1788938141.1070416,3402615010.0,-9.69921875,0.8359375,0.578125,0.01953125,-0.005859375,0.015625,26.4375,-4.0,-28.125,26.4375,-4.0,-28.125,-0.006050993944470911,-0.6818863732395958,0.06549345474689854,0.7284950012510385,59.3305882562966,83.07699606954048,-125.49617383997717,0.5205078125,0.52703857421875,0.43768310546875,-0.5096435546875,59.11466738106062,83.13885129307471,-35.39253625411539,0.7952248271028406,,,,3,0,3,3
1788938141.104929,3402618393.0,-9.7265625,0.875,0.6171875,0.025390625,-0.005859375,0.025390625,29.8125,-5.6875,-31.875,29.8125,-5.6875,-31.875,-0.0059464250933592136,-0.6818756407116796,0.0654244926596508,0.7285121044930364,59.252690812868664,83.08755895284399,-125.57693736178263,0.5205078125,0.52703857421875,0.43768310546875,-0.5096435546875,59.11466738106062,83.13885129307471,-35.39253625411539,0.7999663952017396,,,,3,0,3,3
1788938141.1116998,3402622776.0,-9.7265625,0.875,0.578125,0.037109375,0.0,0.02734375,29.8125,-5.6875,-31.875,29.8125,-5.6875,-31.875,-0.005797461157127705,-0.6819121386916953,0.06536272060213816,0.7284846870762188,59.21459663636969,83.10471565254923,-125.6220720293098,0.5205078125,0.52716064453125,0.43756103515625,-0.5096435546875,59.19443333956006,83.1375792935663,-35.341803912033434,0.6023573056295559,,,,3,0,3,3
1788938141.1097467,3402626906.0,-9.7265625,0.875,0.6171875,0.037109375,0.0,0.02734375,29.8125,-5.6875,-31.875,29.8125,-5.6875,-31.875,-0.005655825061439501,-0.6819065691824078,0.06530012201832057,0.7284966277294254,59.132409333076104,83.11780155559931,-125.71064765219514,0.5205078125,0.52716064453125,0.43756103515625,-0.5096435546875,59.19443333956006,83.1375792935663,-35.341803912033434,0.6124817897673257,,,,3,0,3,3
1788938141.12141,3402630512.0,-9.76953125,0.875,0.6171875,0.044921875,-0.001953125,0.0390625,30.0625,-7.75,-32.75,30.0625,-7.75,-32.75,-0.005598239461492894,-0.6818923731375485,0.06557764984201533,0.7284854308858705,59.22565906883654,83.10273702797754,-125.64466370490443,0.5205078125,0.52716064453125,0.43756103515625,-0.5096435546875,59.19443333956006,83.1375792935663,-35.341803912033434,0.619831737465454,,,,3,0,2,3
1788938141.128376,3402634418.0,-9.76953125,0.875,0.578125,0.04296875,0.001953125,0.046875,30.0625,-7.75,-32.75,30.0625,-7.75,-32.75,-0.005549547623121242,-0.6818981435046219,0.06588017555929682,0.7284531054737875,59.35479120645729,83.08717707069864,-125.54410789389813,0.5205078125,0.52734375,0.4373779296875,-0.5096435546875,59.313691127475565,83.13567173414279,-35.26607636143959,0.0,,,,3,0,2,3
1788938141.128376,3402638401.0,-9.80859375,0.9140625,0.6171875,0.046875,-0.009765625,0.05078125,29.0625,-5.75,-32.375,29.0625,-5.75,-32.375,-0.005425412101701755,-0.6818764143512038,0.06587142608725026,0.7284751716292764,59.28597932128505,83.09426727820976,-125.62227661000583,0.5205078125,0.52734375,0.4373779296875,-0.5096435546875,59.313691127475565,83.13567173414279,-35.26607636143959,0.0,,,,3,0,2,3
1788938141.128376,3402641907.0,-9.76953125,0.9140625,0.578125,0.044921875,-0.01171875,0.05859375,29.0625,-5.75,-32.375,29.0625,-5.75,-32.375,-0.0053328198398928895,-0.6818962529514843,0.06588006192289467,0.7284565043187657,59.28085622137885,83.10168208220577,-125.63560534458605,0.5205078125,0.52752685546875,0.43707275390625,-0.50958251953125,59.38808835948418,83.04260281042993,-35.12358471389704,1.3281282739662712,,,,3,0,2,3
1788938141.126423,3402646260.0,-9.76953125,0.9140625,0.578125,0.044921875,-0.01171875,0.05859375,29.0625,-5.75,-32.375,29.0625,-5.75,-32.375,-0.005217895525472868,-0.6819204945174498,0.06589033372852593,0.7284337146539179,59.27385690021689,83.11088145745424,-125.65275306838728,0.5205078125,0.52752685546875,0.43707275390625,-0.50958251953125,59.38808835948418,83.04260281042993,-35.12358471389704,1.3327002957334178,,,,3,0,2,3
1788938141.1436694,3402650243.0,-9.73046875,0.9140625,0.54296875,0.048828125,-0.015625,0.0625,29.3125,-5.125,-28.5,29.3125,-5.125,-28.5,-0.005160570234633315,-0.6819493475692732,0.06588709239122342,0.7284074044934787,59.28482629414888,83.11744704790014,-125.64616100210688,0.5205078125,0.52752685546875,0.43707275390625,-0.50958251953125,59.38808835948418,83.04260281042993,-35.12358471389704,1.3350279485187786,,,,3,0,2,3
1788938141.14505,3402653950.0,-9.73046875,0.953125,0.50390625,0.05078125,-0.01953125,0.068359375,29.3125,-5.125,-28.5,29.3125,-5.125,-28.5,-0.005141020203644133,-0.6819968885012505,0.06592793321038126,0.7283593354989596,59.34917569649357,83.12024405955147,-125.58671111617065,0.5206298828125,0.52777099609375,0.436767578125,-0.50958251953125,59.54792031460578,83.06048615631958,-35.068615927135454,0.4928676062945988,,,,3,0,2,3
1788938141.1527567,3402657932.0,-9.6953125,0.953125,0.54296875,0.060546875,-0.015625,0.07421875,26.3125,-4.25,-26.8125,26.3125,-4.25,-26.8125,-0.005129910259486872,-0.6820092685533317,0.06592856774881768,0.7283477641777099,59.35933351264136,83.12201844242234,-125.57750294311072,0.5206298828125,0.52777099609375,0.436767578125,-0.50958251953125,59.54792031460578,83.06048615631958,-35.068615927135454,0.4942471963792549,,,,3,0,3,3
1788938141.1547244,3402661885.0,-9.69921875,0.953125,0.578125,0.060546875,-0.015625,0.07421875,26.3125,-4.25,-26.8125,26.3125,-4.25,-26.8125,-0.005118157412393218,-0.6820008351394162,0.06592291674049505,0.7283562551267522,59.3435843857632,83.12245110700599,-125.59374672372701,0.5206298828125,0.52777099609375,0.436767578125,-0.50958251953125,59.54792031460578,83.06048615631958,-35.068615927135454,0.49546493313455464,,,,3,0,3,3
1788938141.1547244,3402665792.0,-9.69921875,0.98828125,0.578125,0.060546875,-0.025390625,0.0703125,26.3125,-4.25,-26.8125,26.3125,-4.25,-26.8125,-0.005117964027487901,-0.6819802627745221,0.06590998264429491,0.7283766895075898,59.31503012077415,83.12152368177597,-125.62126820802212,0.52069091796875,0.52801513671875,0.43634033203125,-0.50958251953125,59.63415896512423,82.99309788963924,-34.98258569398327,0.9662027386416887,,,,3,0,3,3
1788938141.1616817,3402669575.0,-9.6953125,1.06640625,0.6171875,0.0546875,-0.01171875,0.072265625,26.4375,-4.625,-26.125,26.4375,-4.625,-26.125,-0.005253371280857714,-0.6819146257138592,0.06596643606398274,0.7284320659064436,59.31427833795351,83.10311254617501,-125.61565269205697,0.52069091796875,0.52801513671875,0.43634033203125,-0.50958251953125,59.63415896512423,82.99309788963924,-34.98258569398327,0.9576689471243817,,,,3,0,3,3
1788938141.1616817,3402673281.0,-9.6953125,1.10546875,0.6171875,0.04296875,-0.01171875,0.078125,26.4375,-4.625,-26.125,26.4375,-4.625,-26.125,-0.005459970672052585,-0.6818506642022886,0.06608681537042212,0.7284795077978199,59.3681971918217,83.07594121661059,-125.55479893461242,0.520751953125,0.5283203125,0.43597412109375,-0.50958251953125,59.815103397856724,82.98506087665001,-34.88133873950204,0.1799767777413,,,,3,0,3,3
1788938141.1616817,3402676864.0,-9.69921875,1.14453125,0.6171875,0.02734375,-0.013671875,0.07421875,26.25,-5.4375,-25.5625,26.25,-5.4375,-25.5625,-0.005588751603306706,-0.6818056090571813,0.0663783967044947,0.7284941906183077,59.4947211433107,83.04468982287491,-125.44158448391558,0.520751953125,0.5283203125,0.43597412109375,-0.50958251953125,59.815103397856724,82.98506087665001,-34.88133873950204,0.11788369410892952,,,,3,0,3,3
1788938141.1732683,3402680940.0,-9.7265625,1.14453125,0.65625,0.02734375,-0.013671875,0.07421875,26.25,-5.4375,-25.5625,26.25,-5.4375,-25.5625,-0.005732478398579114,-0.6817324777822277,0.06670372292216009,0.728531798054579,59.6100306385401,83.0078410185076,-125.34112765979145,0.520751953125,0.5283203125,0.43597412109375,-0.50958251953125,59.815103397856724,82.98506087665001,-34.88133873950204,0.0,,,,3,0,3,3
1788938141.1770213,3402685523.0,-9.69921875,1.14453125,0.6171875,0.013671875,-0.0078125,0.072265625,26.25,-5.4375,-25.5625,26.25,-5.4375,-25.5625,-0.005915754219538272,-0.6816845187198695,0.06705088069525487,0.7285433413240867,59.77390682171169,82.96902444626869,-125.19067089094179,0.5208740234375,0.52850341796875,0.4356689453125,-0.50946044921875,59.92913943788584,82.91322927698373,-34.73483676856347,0.9545291705187712,,,,3,0,3,3
1788938141.1779463,3402688906.0,-9.7265625,1.14453125,0.6171875,0.01171875,-0.01171875,0.068359375,26.5,-6.0625,-26.25,26.5,-6.0625,-26.25,-0.006025548403478535,-0.6816495809306199,0.06730763108871402,0.7285514562340625,59.88643771136057,82.94208533234955,-125.09015337591981,0.5208740234375,0.52850341796875,0.4356689453125,-0.50946044921875,59.92913943788584,82.91322927698373,-34.73483676856347,0.9487795158051721,,,,3,0,3,3
1788938141.1779463,3402693389.0,-9.69921875,1.14453125,0.65625,0.00390625,-0.005859375,0.0625,26.5,-6.0625,-26.25,26.5,-6.0625,-26.25,-0.006174299721292731,-0.6815942409373519,0.0676233760377906,0.7285727470590966,60.014901900983034,82.90694977898687,-124.97535361557769,0.52105712890625,0.5286865234375,0.4354248046875,-0.50933837890625,60.08518990431882,82.89589080651047,-34.6172509721709,0.5339770295941068,,,,3,0,3,3
1788938141.1759932,3402696642.0,-9.69921875,1.14453125,0.6171875,0.00390625,-0.005859375,0.0625,26.5,-6.0625,-26.25,26.5,-6.0625,-26.25,-0.00628136848494545,-0.6815674645149317,0.0678546373466521,0.7285753797069991,60.12237438138167,82.88248560593524,-124.87803948285871,0.52105712890625,0.5286865234375,0.4354248046875,-0.50933837890625,60.08518990431882,82.89589080651047,-34.6172509721709,0.5255815722934926,,,,3,0,3,3
1788938141.1936965,3402701025.0,-9.6953125,1.1796875,0.6171875,0.00390625,-0.013671875,0.06640625,26.9375,-5.25,-27.1875,26.9375,-5.25,-27.1875,-0.006526627316704703,-0.6815042147862975,0.06811738076015598,0.7286078717683173,60.2472398693666,82.84347558346172,-124.75470109147228,0.52105712890625,0.5286865234375,0.4354248046875,-0.50933837890625,60.08518990431882,82.89589080651047,-34.6172509721709,0.5071918321494077,,,,3,0,3,3
1788938141.195088,3402705031.0,-9.7265625,1.14453125,0.6171875,-0.00390625,-0.009765625,0.064453125,26.9375,-5.25,-27.1875,26.9375,-5.25,-27.1875,-0.0067634251735840985,-0.6814483011602601,0.06833681106358314,0.728637460730216,60.357152835192196,82.80843307752747,-124.64347268850388,0.521240234375,0.52880859375,0.43524169921875,-0.50921630859375,60.201861830341976,82.87914874391706,-34.52436670877056,0.0,,,,3,0,3,3
1788938141.195088,3402708814.0,-9.66015625,1.1796875,0.6171875,-0.005859375,-0.013671875,0.068359375,26.4375,-5.0,-28.625,26.4375,-5.0,-28.625,-0.007039727494421691,-0.6813915023346467,0.0684113978770839,0.7286809613427818,60.41447228560127,82.77997420881127,-124.56983873486676,0.521240234375,0.52880859375,0.43524169921875,-0.50921630859375,60.201861830341976,82.87914874391706,-34.52436670877056,0.0,,,,3,0,3,3
1788938141.195088,3402712620.0,-9.73046875,1.1796875,0.578125,-0.009765625,-0.015625,0.056640625,26.4375,-5.0,-28.625,26.4375,-5.0,-28.625,-0.007301486525119457,-0.6814088668732011,0.0684468417491651,0.7286588188553462,60.52808072207071,82.76121504835923,-124.4378899248954,0.52142333984375,0.52886962890625,0.43499755859375,-0.509033203125,60.23568074947354,82.77511033760516,-34.39310222410844,1.2804633590445131,,,,3,0,3,3
1788938141.207033,3402716750.0,-9.765625,1.14453125,0.50390625,-0.009765625,-0.015625,0.056640625,26.4375,-5.0,-28.625,26.4375,-5.0,-28.625,-0.0074579576329226105,-0.6814833724078609,0.06846157112260573,0.7285861687398265,60.66050423245168,82.7557237232618,-124.29396258852597,0.52142333984375,0.52886962890625,0.43499755859375,-0.509033203125,60.23568074947354,82.77511033760516,-34.39310222410844,1.2760540512571228,,,,3,0,3,3
1788938141.2118366,3402720156.0,-9.8046875,1.14453125,0.54296875,-0.013671875,-0.017578125,0.056640625,29.75,-5.75,-32.25,29.75,-5.75,-32.25,-0.007610411870182929,-0.6815391831443065,0.06847836339273736,0.728530807321976,60.77269053907328,82.74879054859771,-124.17077047221464,0.52142333984375,0.52886962890625,0.43499755859375,-0.509033203125,60.23568074947354,82.77511033760516,-34.39310222410844,1.2720337694943948,,,,3,0,3,3
1788938141.2118366,3402724262.0,-9.76953125,1.06640625,0.54296875,-0.01953125,-0.01953125,0.052734375,29.75,-5.75,-32.25,29.75,-5.75,-32.25,-0.007691064717283951,-0.6815947878898074,0.068389381157275,0.7284862971874541,60.817594372347614,82.75363410167927,-124.1120678059324,0.52166748046875,0.5289306640625,0.43487548828125,-0.5089111328125,60.32772433278446,82.78333609381431,-34.34861807551269,0.681594277936503,,,,3,0,3,3
1788938141.2118366,3402728245.0,-9.8046875,1.02734375,0.38671875,-0.009765625,-0.02734375,0.04296875,29.625,-3.9375,-32.75,29.625,-3.9375,-32.75,-0.007750543885415089,-0.6816176309277742,0.06826155496407399,0.7284762826556371,60.804913104799795,82.75975774756728,-124.10951093886945,0.52166748046875,0.5289306640625,0.43487548828125,-0.5089111328125,60.32772433278446,82.78333609381431,-34.34861807551269,0.6779892619827692,,,,3,0,3,3
1788938141.2118366,3402732528.0,-9.8046875,1.06640625,0.42578125,0.001953125,-0.041015625,0.041015625,29.625,-3.9375,-32.75,29.625,-3.9375,-32.75,-0.007802340340591177,-0.6816157688966172,0.068133055879662,0.7284895014845318,60.763495120785485,82.76441509605196,-124.13626460783667,0.5218505859375,0.5289306640625,0.4346923828125,-0.50885009765625,60.29946271537513,82.73949257247854,-34.35380281512309,0.9316822350168248,,,,3,0,3,3
1788938141.2275338,3402736104.0,-9.8046875,1.02734375,0.50390625,0.001953125,-0.041015625,0.041015625,29.625,-3.9375,-32.75,29.625,-3.9375,-32.75,-0.00783682830158708,-0.6815961410708543,0.0680136703342677,0.7285186512692403,60.701927137708694,82.76819689078317,-124.18531795868556,0.5218505859375,0.5289306640625,0.4346923828125,-0.50885009765625,60.29946271537513,82.73949257247854,-34.35380281512309,0.9302260875154652,,,,3,0,3,3
1788938141.2330496,3402739887.0,-9.765625,0.98828125,0.46484375,0.001953125,-0.05859375,0.046875,29.6875,-5.375,-32.5625,29.6875,-5.375,-32.5625,-0.007849601231878677,-0.6815878016413003,0.06794423535984044,0.7285327949348926,60.66713793975509,82.77114777842381,-124.21341867694764,0.5218505859375,0.5289306640625,0.4346923828125,-0.50885009765625,60.29946271537513,82.73949257247854,-34.35380281512309,0.9298157651665001,,,,3,0,3,3
1788938141.2369723,3402743793.0,-9.765625,0.953125,0.46484375,0.01953125,-0.0703125,0.04296875,29.6875,-5.375,-32.5625,29.6875,-5.375,-32.5625,-0.007820671772354758,-0.6815586535285802,0.06788826397886014,0.7285655924536064,60.603433178281065,82.77435530298122,-124.2749172850502,0.5220947265625,0.5289306640625,0.43438720703125,-0.5089111328125,60.20686030188256,82.72054754495149,-34.48696658309954,0.4526583653379183,,,,3,0,3,3
1788938141.238744,3402747776.0,-9.765625,0.9140625,0.50390625,0.03125,-0.0703125,0.041015625,30.3125,-6.1875,-28.8125,30.3125,-6.1875,-28.8125,-0.007717216940089621,-0.6815363463935252,0.06797961987683444,0.7285790447087163,60.58771616317626,82.77365777363687,-124.30646722077064,0.5220947265625,0.5289306640625,0.43438720703125,-0.5089111328125,60.20686030188256,82.72054754495149,-34.48696658309954,0.4598816809603544,,,,3,0,3,3
1788938141.238744,3402751529.0,-9.8046875,0.9140625,0.50390625,0.03125,-0.0703125,0.041015625,30.3125,-6.1875,-28.8125,30.3125,-6.1875,-28.8125,-0.0076196120429904,-0.6815154930571543,0.0680620093193797,0.7285918865337351,60.57146991512108,82.77326238913321,-124.33734163155536,0.5220947265625,0.5289306640625,0.43438720703125,-0.5089111328125,60.20686030188256,82.72054754495149,-34.48696658309954,0.46714369933057154,,,,3,0,3,3
1788938141.2450228,3402755635.0,-9.765625,0.9140625,0.50390625,0.0546875,-0.08203125,0.05859375,30.3125,-6.1875,-28.8125,30.3125,-6.1875,-28.8125,-0.00750523233068972,-0.6814731792064382,0.06821285417206434,0.7286185449435341,60.557005515379664,82.76778998754594,-124.37337432234146,0.52227783203125,0.5289306640625,0.4339599609375,-0.50909423828125,60.02269264031661,82.67838756667493,-34.69994745831229,0.38937547682492035,,,,3,0,3,3
1788938141.2533827,3402759418.0,-9.76953125,0.98828125,0.42578125,0.08203125,-0.08203125,0.0546875,26.3125,-5.75,-27.25,26.3125,-5.75,-27.25,-0.007424591035164238,-0.6814402774648853,0.06845165802043249,0.7286277473516872,60.60068992732778,82.75508117658596,-124.35568464067384,0.52227783203125,0.5289306640625,0.4339599609375,-0.50909423828125,60.02269264031661,82.67838756667493,-34.69994745831229,0.3940861850920439,,,,3,0,3,3
1788938141.2533827,3402764101.0,-9.76953125,1.06640625,0.46484375,0.09375,-0.08984375,0.052734375,26.3125,-5.75,-27.25,26.3125,-5.75,-27.25,-0.007341827767393436,-0.6813722993893342,0.0688180782163785,0.7286576420381039,60.66159842111501,82.73132564600726,-124.33134572895317,0.5223388671875,0.529052734375,0.43341064453125,-0.50933837890625,59.87471427178793,82.61648333284366,-34.8747372192224,0.7876619378073503,,,,3,0,3,3
1788938141.2616138,3402767884.0,-9.7265625,1.10546875,0.50390625,0.099609375,-0.09765625,0.056640625,26.1875,-4.0625,-25.75,26.1875,-4.0625,-25.75,-0.0072813808603063215,-0.6812929595979262,0.06886141382258558,0.7287283378471157,60.57864834023416,82.72607202185134,-124.4227446909466,0.5223388671875,0.529052734375,0.43341064453125,-0.50933837890625,59.87471427178793,82.61648333284366,-34.8747372192224,0.7884111006392202,,,,3,0,3,3
1788938141.2616138,3402771760.0,-9.7265625,1.10546875,0.50390625,0.099609375,-0.09765625,0.056640625,26.1875,-4.0625,-25.75,26.1875,-4.0625,-25.75,-0.00721943996424032,-0.681212288387053,0.06890647123056301,0.7288001070661478,60.4947306591763,82.72068236453408,-124.5153730655873,0.5223388671875,0.529052734375,0.43341064453125,-0.50933837890625,59.87471427178793,82.61648333284366,-34.8747372192224,0.7894833401586988,,,,3,0,3,3
1788938141.2616138,3402775467.0,-9.7265625,1.10546875,0.50390625,0.1015625,-0.103515625,0.052734375,26.1875,-4.0625,-25.75,26.1875,-4.0625,-25.75,-0.007151696857578268,-0.6811283302455586,0.06894798412906263,0.7288753161230616,60.404233117211575,82.71562802329694,-124.61476394214006,0.5224609375,0.5291748046875,0.4327392578125,-0.5096435546875,59.6788673215838,82.55061170916275,-35.11807594659998,0.9060018436992854,,,,3,0,3,3
1788938141.271202,3402778750.0,-9.765625,1.1796875,0.578125,0.09375,-0.10546875,0.044921875,26.1875,-4.0625,-25.75,26.1875,-4.0625,-25.75,-0.007127731816853682,-0.6810273717532042,0.06895540934962176,0.7289691803385765,60.29477329031753,82.70834494546291,-124.72679520796645,0.5224609375,0.5291748046875,0.4327392578125,-0.5096435546875,59.6788673215838,82.55061170916275,-35.11807594659998,0.9040983404168932,,,,3,0,3,3
1788938141.278386,3402783032.0,-9.76953125,1.21875,0.578125,0.08203125,-0.109375,0.044921875,26.1875,-4.0625,-25.75,26.1875,-4.0625,-25.75,-0.007145463248277569,-0.6808921838698107,0.06895886313584772,0.7290949536891468,60.16097136237226,82.69557417048956,-124.85947248504026,0.5225830078125,0.52923583984375,0.43212890625,-0.510009765625,59.438206393525725,82.5142705191678,-35.43528668223838,0.576749077560434,,,,3,0,3,3
1788938141.276433,3402787462.0,-9.8046875,1.296875,0.578125,0.08203125,-0.109375,0.044921875,26.1875,-4.0625,-25.75,26.1875,-4.0625,-25.75,-0.007229922013249444,-0.680754752032363,0.06900944793785524,0.7292176574304483,60.066071718409994,82.67499977259513,-124.9516767704418,0.5225830078125,0.52923583984375,0.43212890625,-0.510009765625,59.438206393525725,82.5142705191678,-35.43528668223838,0.5618419546747895,,,,3,0,3,3
1788938141.278386,3402790868.0,-9.8046875,1.3359375,0.54296875,0.0703125,-0.119140625,0.041015625,26.0625,-5.125,-26.5625,26.0625,-5.125,-26.5625,-0.007293382751852698,-0.6806333081953216,0.06925492528330741,0.7293071106654114,60.06577383165913,82.64464426100804,-124.96685315557733,0.5225830078125,0.52923583984375,0.43212890625,-0.510009765625,59.438206393525725,82.5142705191678,-35.43528668223838,0.5451616523819077,,,,3,0,3,3
1788938141.278386,3402794875.0,-9.765625,1.3359375,0.54296875,0.05859375,-0.12109375,0.03515625,26.0625,-5.125,-26.5625,26.0625,-5.125,-26.5625,-0.007376642445478226,-0.6804889205498502,0.06951653316381469,0.7294161129095074,60.0549788951343,82.60997462741628,-124.99224165691498,0.522705078125,0.52923583984375,0.4315185546875,-0.5103759765625,59.13897098047679,82.45079306967106,-35.767474554220684,0.7982535810945224,,,,3,0,3,3
1788938141.278386,3402798657.0,-9.7265625,1.3359375,0.65625,0.056640625,-0.12109375,0.02734375,26.875,-5.4375,-25.5,26.875,-5.4375,-25.5,-0.007435619656696764,-0.6802938669152592,0.06978248570539618,0.7295720463988329,59.98732970510043,82.57240892690488,-125.07682059928261,0.522705078125,0.52923583984375,0.4315185546875,-0.5103759765625,59.13897098047679,82.45079306967106,-35.767474554220684,0.7839232019412915,,,,3,0,3,3
1788938141.2968156,3402803040.0,-9.73046875,1.296875,0.6171875,0.05078125,-0.12890625,0.01953125,26.875,-5.4375,-25.5,26.875,-5.4375,-25.5,-0.007496021257588271,-0.6800822818999575,0.07007315925223896,0.7297408114279089,59.914780316482414,82.5317559435662,-125.16820362130632,0.52288818359375,0.52911376953125,0.43096923828125,-0.5107421875,58.759752450098254,82.38414002771653,-36.15848053031305,1.0536594809069917,,,,3,0,3,3
1788938141.2948625,3402806593.0,-9.7265625,1.21875,0.6171875,0.05078125,-0.12890625,0.01953125,26.875,-5.4375,-25.5,26.875,-5.4375,-25.5,-0.007534746097865089,-0.6799197341813492,0.07031196009562792,0.7298688998303152,59.86402097742093,82.50004820322495,-125.23531769587794,0.52288818359375,0.52911376953125,0.43096923828125,-0.5107421875,58.759752450098254,82.38414002771653,-36.15848053031305,1.0453690054978164,,,,3,0,3,3
1788938141.2968156,3402810000.0,-9.7265625,1.21875,0.65625,0.0390625,-0.125,0.017578125,26.125,-4.0,-28.125,26.125,-4.0,-28.125,-0.007539447630800599,-0.6797668012423027,0.07022217319259164,0.730019930584323,59.67344026266539,82.49249398216874,-125.41824016368605,0.52288818359375,0.52911376953125,0.43096923828125,-0.5107421875,58.759752450098254,82.38414002771653,-36.15848053031305,1.0417489386743108,,,,3,0,3,3
1788938141.2968156,3402813906.0,-9.6953125,1.2578125,0.54296875,0.025390625,-0.125,0.017578125,26.125,-4.0,-28.125,26.125,-4.0,-28.125,-0.007584974712559668,-0.6796463968947338,0.07012043572765592,0.7301413341538605,59.52303704052216,82.48564611178847,-125.55669326208123,0.52313232421875,0.5289306640625,0.43048095703125,-0.51116943359375,58.351644221525845,82.36880390337406,-36.64307180034046,0.29140850473631086,,,,3,0,3,3
1788938141.3116777,3402818065.0,-9.76953125,1.21875,0.578125,0.01171875,-0.125,0.009765625,30.375,-5.3125,-32.125,30.375,-5.3125,-32.125,-0.007653879940769156,-0.6795302904829431,0.07000161955796538,0.7302600740128692,59.37698163789348,82.4786314427035,-125.68751056183318,0.52313232421875,0.5289306640625,0.43048095703125,-0.51116943359375,58.351644221525845,82.36880390337406,-36.64307180034046,0.2756346102982221,,,,3,0,2,3
1788938141.3116777,3402826248.0,-9.7265625,1.21875,0.734375,0.013671875,-0.130859375,0.0078125,30.375,-5.3125,-32.125,30.375,-5.3125,-32.125,-0.007756770575209962,-0.6790277074461346,0.06980976665565979,0.730744689690026,58.827208726759885,82.44050300608647,-126.21343662816493,0.52337646484375,0.5286865234375,0.4300537109375,-0.511474609375,57.93544972134042,82.29839582406316,-37.03729289908434,0.9166904489988635,,,,3,0,2,3
1788938141.3116777,3402830031.0,-9.73046875,1.1796875,0.80859375,0.0078125,-0.126953125,0.0078125,29.6875,-7.8125,-33.1875,29.6875,-7.8125,-33.1875,-0.007761295282017068,-0.6787967363886181,0.07000404716339567,0.73094061752269,58.685101841720595,82.40781357112124,-126.3710631759136,0.52337646484375,0.5286865234375,0.4300537109375,-0.511474609375,57.93544972134042,82.29839582406316,-37.03729289908434,0.9056553456952188,,,,3,0,2,3
1788938141.3266351,3402833637.0,-9.7265625,1.14453125,0.76953125,0.005859375,-0.125,0.001953125,29.6875,-7.8125,-33.1875,29.6875,-7.8125,-33.1875,-0.0077505030641610104,-0.6785898381508078,0.07018788048071578,0.7311151911254052,58.55865219793164,82.37886887529098,-126.51341837462883,0.52362060546875,0.52838134765625,0.4296875,-0.5118408203125,57.47516091187476,82.25631005147653,-37.503899292875204,0.959088488663843,,,,3,0,2,3
1788938141.328046,3402837620.0,-9.76953125,1.14453125,0.734375,0.0078125,-0.12109375,-0.001953125,30.5,-5.0,-33.0625,30.5,-5.0,-33.0625,-0.007734122991291279,-0.6783997485834116,0.07001307431938349,0.7313085080100381,58.29341337645125,82.37426524321965,-126.76579269969898,0.52362060546875,0.52838134765625,0.4296875,-0.5118408203125,57.47516091187476,82.25631005147653,-37.503899292875204,0.9564826793385643,,,,3,0,2,3
1788938141.328046,3402841573.0,-9.765625,1.10546875,0.76953125,0.0078125,-0.12109375,-0.001953125,30.5,-5.0,-33.0625,30.5,-5.0,-33.0625,-0.007701913961038132,-0.6782010729730082,0.06984570691076088,0.7315090993048092,58.018585776852156,82.3693379534356,-127.02964812615227,0.52362060546875,0.52838134765625,0.4296875,-0.5118408203125,57.47516091187476,82.25631005147653,-37.503899292875204,0.9554190483655506,,,,3,0,2,3
1788938141.328046,3402845279.0,-9.73046875,1.10546875,0.80859375,-0.00390625,-0.125,-0.005859375,30.5,-5.0,-33.0625,30.5,-5.0,-33.0625,-0.007683224393854217,-0.6779969035137974,0.06968019389117656,0.7317143141061984,57.743918174814944,82.36274787110165,-127.29240020707833,0.52386474609375,0.528076171875,0.4293212890625,-0.51220703125,57.01990574384602,82.2141100681194,-37.966023938237264,1.006511050320115,,,,3,0,2,3
1788938141.335982,3402850039.0,-9.76953125,1.02734375,0.80859375,0.001953125,-0.1171875,-0.015625,30.4375,-3.9375,-29.5625,30.4375,-3.9375,-29.5625,-0.007600825078924301,-0.6777786140380561,0.06943970097293777,0.7319402337210056,57.40345409323166,82.36358212246077,-127.62001088237534,0.52386474609375,0.528076171875,0.4293212890625,-0.51220703125,57.01990574384602,82.2141100681194,-37.966023938237264,1.0087850996007222,,,,3,0,2,3
1788938141.3450098,3402853745.0,-9.6953125,0.98828125,0.84765625,0.025390625,-0.111328125,-0.009765625,30.4375,-3.9375,-29.5625,30.4375,-3.9375,-29.5625,-0.007512139180023635,-0.6776087805677962,0.06929697186955668,0.7321119026160373,57.150334365875906,82.36293275185062,-127.86873951281693,0.52410888671875,0.52777099609375,0.4290771484375,-0.51251220703125,56.62651041484809,82.1985684183562,-38.382061728445244,0.7443852398447977,,,,3,0,2,3
1788938141.3522315,3402857728.0,-9.69921875,0.98828125,0.92578125,0.0390625,-0.107421875,-0.0078125,26.125,-6.0,-26.3125,26.125,-6.0,-26.3125,-0.007394350407056582,-0.6773521312214796,0.06941775576732079,0.7323391216478918,56.92177071961862,82.33992822270062,-128.11676367642735,0.52410888671875,0.52777099609375,0.4290771484375,-0.51251220703125,56.62651041484809,82.1985684183562,-38.382061728445244,0.7361411723261538,,,,3,0,3,3
1788938141.3522315,3402861404.0,-9.66015625,0.953125,0.88671875,0.0390625,-0.107421875,-0.0078125,26.125,-6.0,-26.3125,26.125,-6.0,-26.3125,-0.0072624974224539465,-0.6771180663641378,0.06952790968400571,0.7325464149864175,56.706874576762786,82.32043826338789,-128.35138995565208,0.52410888671875,0.52777099609375,0.4290771484375,-0.51251220703125,56.62651041484809,82.1985684183562,-38.382061728445244,0.7319015712877455,,,,3,0,3,3
1788938141.3522315,3402865010.0,-9.65625,0.98828125,0.92578125,0.052734375,-0.09765625,-0.00390625,26.125,-6.0,-26.3125,26.125,-6.0,-26.3125,-0.0071456847454764265,-0.6768982978542473,0.06966170826999793,0.7327379340203745,56.52187472866896,82.29972619521237,-128.55682379589584,0.52423095703125,0.527587890625,0.4287109375,-0.512939453125,56.25781137766881,82.19178784403967,-38.814745995497596,0.0,,,,3,0,3,3
1788938141.362179,3402869570.0,-9.66015625,0.98828125,0.88671875,0.060546875,-0.0859375,-0.001953125,25.625,-5.6875,-27.375,25.625,-5.6875,-27.375,-0.0069701732925372,-0.6766394313872262,0.06978195827269618,0.7329672399745237,56.276736861248985,82.27996542611871,-128.8260640269198,0.52423095703125,0.527587890625,0.4287109375,-0.512939453125,56.25781137766881,82.19178784403967,-38.814745995497596,0.0,,,,3,0,3,3
1788938141.362179,3402872876.0,-9.62109375,1.06640625,1.0,0.06640625,-0.078125,0.00390625,25.625,-5.6875,-27.375,25.625,-5.6875,-27.375,-0.006887395375748092,-0.6764576583072548,0.06989777740699184,0.7331247513322451,56.13235117633659,82.26147194385788,-128.98665021447363,0.52423095703125,0.52752685546875,0.42828369140625,-0.5133056640625,55.97210705845251,82.13958452566074,-39.10922371393303,0.6931140033244929,,,,3,0,3,3
1788938141.3562546,3402877106.0,-9.66015625,1.06640625,1.0,0.06640625,-0.078125,0.00390625,25.625,-5.6875,-27.375,25.625,-5.6875,-27.375,-0.006779310449674598,-0.6762249637326867,0.07004424005443824,0.7333264237771265,55.947174363644265,82.23797149461268,-129.19259192260762,0.52423095703125,0.52752685546875,0.42828369140625,-0.5133056640625,55.97210705845251,82.13958452566074,-39.10922371393303,0.687877011341891,,,,3,0,3,3
1788938141.362179,3402880712.0,-9.65625,1.14453125,1.0390625,0.072265625,-0.0625,0.001953125,25.5,-6.5,-26.4375,25.5,-6.5,-26.4375,-0.0067013519182151605,-0.6760629441775658,0.07026311026984151,0.7334555765195584,55.86997910340387,82.21467030818224,-129.2939898184457,0.52423095703125,0.52752685546875,0.42828369140625,-0.5133056640625,55.97210705845251,82.13958452566074,-39.10922371393303,0.6823281310718599,,,,3,0,3,3
1788938141.3779817,3402884618.0,-9.6171875,1.14453125,0.92578125,0.07421875,-0.05078125,-0.009765625,25.5,-6.5,-26.4375,25.5,-6.5,-26.4375,-0.006603371855687569,-0.6759230653535944,0.0705198259285528,0.7335607400577969,55.824002137844474,82.19243418763722,-129.36887184270645,0.524169921875,0.52752685546875,0.42791748046875,-0.51361083984375,55.76689655504296,82.0918769259289,-39.317632960937665,1.1400695902985094,,,,3,0,3,3
1788938141.3808467,3402888701.0,-9.65625,1.1796875,0.84765625,0.068359375,-0.04296875,-0.009765625,25.9375,-5.9375,-25.6875,25.9375,-5.9375,-25.6875,-0.00653563337202538,-0.675796945336691,0.0707842006737493,0.7336520776941904,55.80403234208324,82.16906755745966,-129.41591550612534,0.524169921875,0.52752685546875,0.42791748046875,-0.51361083984375,55.76689655504296,82.0918769259289,-39.317632960937665,1.1366969096157276,,,,3,0,3,3
1788938141.3808467,3402893084.0,-9.6171875,1.21875,0.80859375,0.060546875,-0.041015625,-0.0078125,25.9375,-5.9375,-25.6875,25.9375,-5.9375,-25.6875,-0.00649555989309588,-0.6756859219121399,0.07106995661399376,0.7337270636267289,55.81628681537348,82.14404004336572,-129.43023048821817,0.5240478515625,0.527587890625,0.42767333984375,-0.513916015625,55.64960926163872,82.10202616937133,-39.5020280776386,0.8569591094864799,,,,3,0,3,3
1788938141.3893101,3402896337.0,-9.65625,1.14453125,0.76953125,0.060546875,-0.041015625,-0.0078125,25.9375,-5.9375,-25.6875,25.9375,-5.9375,-25.6875,-0.006443009034113218,-0.6756188258870234,0.07129299198225063,0.7337676737468375,55.83690305878136,82.12771244106044,-129.4320723734797,0.5240478515625,0.527587890625,0.42767333984375,-0.513916015625,55.64960926163872,82.10202616937133,-39.5020280776386,0.8544732673294638,,,,3,0,3,3
1788938141.3951685,3402900343.0,-9.69921875,1.14453125,0.76953125,0.03125,-0.052734375,-0.009765625,26.0625,-5.625,-26.625,26.0625,-5.625,-26.625,-0.0064322909279941635,-0.6755063555618985,0.07151478845268813,0.7338497286648452,55.82913043236224,82.10452026206109,-129.4588236985125,0.5240478515625,0.527587890625,0.42767333984375,-0.513916015625,55.64960926163872,82.10202616937133,-39.5020280776386,0.8510933321989386,,,,3,0,3,3
1788938141.3951685,3402904150.0,-9.65625,1.1796875,0.88671875,0.02734375,-0.05078125,-0.0078125,26.0625,-5.625,-26.625,26.0625,-5.625,-26.625,-0.006423777510139421,-0.675344568558233,0.07163370843729376,0.7339870983994985,55.73262074993321,82.08276853795763,-129.56576427588683,0.5240478515625,0.52752685546875,0.42742919921875,-0.51416015625,55.456726576245984,82.07661689450524,-39.70609139183997,1.0034703070339364,,,,3,0,3,3
1788938141.3951685,3402907932.0,-9.6953125,1.21875,0.84765625,0.009765625,-0.044921875,-0.0078125,27.0625,-7.875,-29.125,27.0625,-7.875,-29.125,-0.006417594107358029,-0.675255155165863,0.07182314465115382,0.7340509013687122,55.73332960776263,82.06339342055009,-129.58102343501136,0.5240478515625,0.52752685546875,0.42742919921875,-0.51416015625,55.456726576245984,82.07661689450524,-39.70609139183997,1.0015326282462103,,,,3,0,3,3
1788938141.40488,3402912415.0,-9.76953125,1.1796875,0.84765625,0.00390625,-0.0390625,-0.001953125,27.0625,-7.875,-29.125,27.0625,-7.875,-29.125,-0.006417873977080939,-0.6751589851109417,0.07204827841897249,0.7341172939622385,55.74569486192185,82.04082429218606,-129.5870142759093,0.52410888671875,0.5274658203125,0.42730712890625,-0.51434326171875,55.33394729373369,82.09935177144673,-39.89008558874744,0.0,,,,3,0,3,3
1788938141.40488,3402916568.0,-9.76953125,1.1796875,0.84765625,0.00390625,-0.0390625,-0.001953125,27.0625,-7.875,-29.125,27.0625,-7.875,-29.125,-0.006417444203588685,-0.6750701268304337,0.07225693808671074,0.734178503614325,55.7572054213382,82.01998034599387,-129.59257316416884,0.52410888671875,0.5274658203125,0.42730712890625,-0.51434326171875,55.33394729373369,82.09935177144673,-39.89008558874744,0.0,,,,3,0,3,3
1788938141.4045541,3402919775.0,-9.80859375,1.14453125,0.80859375,-0.0078125,-0.03125,-0.009765625,28.5625,-5.625,-31.75,28.5625,-5.625,-31.75,-0.006418250349954756,-0.6750146225301734,0.07209361836532258,0.7342455826383213,55.63655987118468,82.02453733956072,-129.6998582207769,0.52410888671875,0.5274658203125,0.42730712890625,-0.51434326171875,55.33394729373369,82.09935177144673,-39.89008558874744,0.0,,,,3,0,3,3
1788938141.411325,3402924457.0,-9.8046875,1.1796875,0.76953125,-0.01171875,-0.03125,-0.00390625,28.5625,-5.625,-31.75,28.5625,-5.625,-31.75,-0.0064974873290154925,-0.6749811988146689,0.07184803970565594,0.7342996820750886,55.52419513419129,82.03102985922892,-129.78579029742008,0.524169921875,0.52734375,0.42724609375,-0.514404296875,55.197839423299065,82.06897152188992,-39.9899025604741,0.779445449198468,,,,3,0,3,3
1788938141.411325,3402928240.0,-9.73046875,1.10546875,0.76953125,-0.015625,-0.037109375,-0.009765625,29.5,-7.125,-32.0625,29.5,-7.125,-32.0625,-0.006485833311770342,-0.6749241843831597,0.07200008788977155,0.734337297598892,55.53628737843512,82.01729849497735,-129.78705355769787,0.524169921875,0.52734375,0.42724609375,-0.514404296875,55.197839423299065,82.06897152188992,-39.9899025604741,0.7783733027805227,,,,3,0,3,3
1788938141.411325,3402932393.0,-9.7265625,1.02734375,0.734375,-0.015625,-0.037109375,-0.009765625,29.5,-7.125,-32.0625,29.5,-7.125,-32.0625,-0.006394418249774143,-0.6749056727899706,0.0721158433242859,0.734343754241017,55.54167949538214,82.01449808337692,-129.7985163083198,0.524169921875,0.52734375,0.42724609375,-0.514404296875,55.197839423299065,82.06897152188992,-39.9899025604741,0.7807303273795156,,,,3,0,3,3
1788938141.427058,3402936100.0,-9.76953125,1.02734375,0.734375,-0.015625,-0.029296875,-0.013671875,29.5,-7.125,-32.0625,29.5,-7.125,-32.0625,-0.006304176587194434,-0.6749040454381704,0.07220720271206964,0.7343370525073942,55.551809184194674,82.01467447749151,-129.80315277676826,0.52423095703125,0.5272216796875,0.42724609375,-0.5145263671875,55.07024310511349,82.09196069964773,-40.150847185701075,0.0,,,,3,0,3,3
1788938141.4292593,3402940082.0,-9.7265625,1.06640625,0.6953125,-0.005859375,-0.03125,-0.0078125,28.5625,-7.375,-33.9375,28.5625,-7.375,-33.9375,-0.006251628914506788,-0.6749050429897102,0.07234117614717045,0.7343233989984365,55.59477294292368,82.01011789578949,-129.77537083194449,0.52423095703125,0.5272216796875,0.42724609375,-0.5145263671875,55.07024310511349,82.09196069964773,-40.150847185701075,0.0,,,,3,0,2,3
1788938141.4377122,3402943389.0,-9.73046875,1.02734375,0.6953125,-0.00390625,-0.046875,-0.005859375,28.5625,-7.375,-33.9375,28.5625,-7.375,-33.9375,-0.006181324946361271,-0.6748918847078538,0.07244030745906024,0.734326315089297,55.6043186044659,82.0074626785282,-129.77961157719207,0.5242919921875,0.52703857421875,0.42718505859375,-0.51458740234375,54.87572630722999,82.03555098976048,-40.26673011188508,1.1735919391263858,,,,3,0,2,3
1788938141.443007,3402947848.0,-9.6953125,1.06640625,0.734375,-0.0078125,-0.044921875,-0.005859375,30.125,-6.3125,-29.875,30.125,-6.3125,-29.875,-0.006050216637540324,-0.6749137267036297,0.07236414920966536,0.7343148413962626,55.54920922797207,82.02252034020836,-129.83913980521913,0.5242919921875,0.52703857421875,0.42718505859375,-0.51458740234375,54.87572630722999,82.03555098976048,-40.26673011188508,1.176880517910516,,,,3,0,2,3
1788938141.4449747,3402951325.0,-9.73046875,1.06640625,0.65625,-0.0078125,-0.044921875,-0.005859375,30.125,-6.3125,-29.875,30.125,-6.3125,-29.875,-0.006006682736210991,-0.6749458029235482,0.07233824028223651,0.734288268918456,55.55272221537746,82.02989293663354,-129.8370358082387,0.5242919921875,0.52703857421875,0.42718505859375,-0.51458740234375,54.87572630722999,82.03555098976048,-40.26673011188508,1.1782463885748722,,,,3,0,2,3
