pc_unix,dev_us,ax,ay,az,gx,gy,gz,mx_raw,my_raw,mz_raw,mx,my,mz,host_qw,host_qx,host_qy,host_qz,host_roll,host_pitch,host_yaw,chip_qw,chip_qx,chip_qy,chip_qz,chip_roll,chip_pitch,chip_yaw,diff_deg,rel_roll,rel_pitch,rel_yaw,cal_acc,cal_gyr,cal_mag,cal_rv
1788939083.350129,4344873800.0,-9.76953125,0.875,2.2265625,0.00390625,-0.029296875,-0.001953125,21.5,-9.125,-29.9375,21.5,-9.125,-29.9375,0.06520826685644592,-0.6102255802142242,0.1113090073316381,0.781653969524007,22.279583690920692,75.57786873570967,-172.17567873554447,0.51287841796875,0.50537109375,0.35546875,-0.59600830078125,21.81594125614357,75.24759114614528,-81.6869202742621,1.3660167633788112,,,,3,0,3,3
1788939083.355767,4344877759.0,-9.69921875,0.8359375,2.11328125,-0.00390625,-0.03515625,-0.00390625,20.6875,-10.25,-31.1875,20.6875,-10.25,-31.1875,0.0652576116146694,-0.6102419421811971,0.11141517780286989,0.781621950999602,22.30773530127883,75.5804782672591,-172.1602886683692,0.51287841796875,0.50531005859375,0.35540771484375,-0.59613037109375,21.782396436641054,75.24489235848267,-81.73982800331169,1.1681382059509753,,,,3,0,3,3
1788939083.3607683,4344881665.0,-9.62109375,0.875,2.1484375,0.00390625,-0.04296875,0.0,20.6875,-10.25,-31.1875,20.6875,-10.25,-31.1875,0.06530294717328015,-0.6102288331273662,0.11155991677736121,0.7816077541063198,22.346647998455705,75.57845056190322,-172.13705745925915,0.51287841796875,0.50531005859375,0.35540771484375,-0.59613037109375,21.782396436641054,75.24489235848267,-81.73982800331169,1.1880751925836703,,,,3,0,3,3
1788939083.3628242,4344885695.0,-9.54296875,0.875,2.1484375,0.00390625,-0.04296875,0.0,20.6875,-10.25,-31.1875,20.6875,-10.25,-31.1875,0.06534969956168943,-0.6102102557872563,0.11171527655370209,0.7815961601004563,22.38824151746317,75.57558595337356,-172.1121503412964,0.51287841796875,0.50531005859375,0.35540771484375,-0.59613037109375,21.782396436641054,75.24489235848267,-81.73982800331169,1.2090050298207096,,,,3,0,3,3
1788939083.3662739,4344889678.0,-9.5,0.875,2.1875,0.001953125,-0.052734375,-0.00390625,21.5625,-8.125,-29.5,21.5625,-8.125,-29.5,0.06540254094154453,-0.610207802164249,0.1115404681444503,0.781618621696274,22.310168084648243,75.57846538049392,-172.18013560302634,0.51287841796875,0.50518798828125,0.35528564453125,-0.59625244140625,21.733552330281974,75.21176509264858,-81.7767637299734,1.5066054925040029,,,,3,0,3,3
1788939083.370209,4344893007.0,-9.42578125,0.875,2.2265625,0.00390625,-0.056640625,-0.00390625,21.5625,-8.125,-29.5,21.5625,-8.125,-29.5,0.06545059748126468,-0.6101596206903688,0.11137361714946133,0.7816760031952983,22.229489762528782,75.57468934297648,-172.2510941207477,0.51287841796875,0.50518798828125,0.35528564453125,-0.59625244140625,21.733552330281974,75.21176509264858,-81.7767637299734,1.4948276178773838,,,,3,0,3,3
1788939083.370209,4344897567.0,-9.421875,0.875,2.265625,0.0,-0.05859375,0.001953125,21.5625,-8.125,-29.5,21.5625,-8.125,-29.5,0.06549920045977356,-0.6100400552995346,0.1111574418591798,0.7817960148201026,22.120264368801227,75.56135764518115,-172.34673742370245,0.512939453125,0.50506591796875,0.3551025390625,-0.596435546875,21.69665959576647,75.18819529854507,-81.83298031013497,1.345281176512523,,,,3,0,3,3
1788939083.3820014,4344901673.0,-9.4609375,0.875,2.1875,-0.009765625,-0.064453125,0.005859375,21.5625,-8.125,-29.5,21.5625,-8.125,-29.5,0.06551960927706836,-0.6100238864628122,0.11097542416272156,0.7818327787813006,22.046156580209395,75.56141694225153,-172.40753890196254,0.512939453125,0.50506591796875,0.3551025390625,-0.596435546875,21.69665959576647,75.18819529854507,-81.83298031013497,1.330037490001815,,,,3,0,3,3
1788939083.3820014,4344905050.0,-9.46484375,0.875,2.1484375,-0.009765625,-0.064453125,0.005859375,21.5625,-8.125,-29.5,21.5625,-8.125,-29.5,0.06552891266365732,-0.6100280220812696,0.11086096026291592,0.7818450110925548,22.002564722424108,75.56335977345807,-172.44244175023695,0.512939453125,0.50506591796875,0.3551025390625,-0.596435546875,21.69665959576647,75.18819529854507,-81.83298031013497,1.3207765077119786,,,,3,0,3,3
1788939083.3888159,4344909009.0,-9.42578125,0.9140625,2.1875,-0.01171875,-0.076171875,0.001953125,20.0625,-10.75,-31.3125,20.0625,-10.75,-31.3125,0.06554648672117325,-0.6099274947058194,0.1110182427351982,0.7818996476916857,22.040645715894687,75.54819273948429,-172.41900045822874,0.51300048828125,0.50482177734375,0.35491943359375,-0.59661865234375,21.613598731814307,75.13207229756706,-81.8917671376832,1.7453420673764424,,,,3,0,3,3
1788939083.3888159,4344913115.0,-9.42578125,0.953125,2.2265625,-0.013671875,-0.07421875,-0.001953125,20.0625,-10.75,-31.3125,20.0625,-10.75,-31.3125,0.06555936043500597,-0.6098140359181249,0.1111809762769593,0.7819639393032797,22.08000572360652,75.53102560268775,-172.39437518544466,0.51300048828125,0.50482177734375,0.35491943359375,-0.59661865234375,21.613598731814307,75.13207229756706,-81.8917671376832,1.7540382952413145,,,,3,0,3,3
1788939083.3971875,4344920475.0,-9.38671875,0.9140625,2.1484375,-0.01171875,-0.08203125,-0.001953125,24.5,-9.8125,-36.0625,24.5,-9.8125,-36.0625,0.06553337358183732,-0.6097762076042702,0.11089835176617452,0.7820357467291909,21.978502105182518,75.52772176585276,-172.47052292119076,0.51312255859375,0.50457763671875,0.35479736328125,-0.5968017578125,21.53576473165239,75.09969326806122,-81.96981544604763,1.7018757836084997,,,,3,0,2,3
1788939083.3971875,4344924581.0,-9.42578125,0.9140625,2.2265625,-0.013671875,-0.083984375,-0.009765625,24.5,-9.8125,-36.0625,24.5,-9.8125,-36.0625,0.06552684349962894,-0.6096987363682451,0.11065707188282232,0.7821308689051085,21.881269180368434,75.5189555162081,-172.54749416386935,0.51312255859375,0.50457763671875,0.35479736328125,-0.5968017578125,21.53576473165239,75.09969326806122,-81.96981544604763,1.6816745586576356,,,,3,0,2,3
1788939083.3971875,4344928240.0,-9.42578125,0.875,2.2265625,-0.01953125,-0.09375,-0.01171875,24.1875,-9.3125,-35.6875,24.1875,-9.3125,-35.6875,0.06554505113258614,-0.6096007022550898,0.11042476545764436,0.7822385833335966,21.777966439970108,75.50785865850281,-172.6333482922918,0.5133056640625,0.5042724609375,0.3546142578125,-0.5970458984375,21.44714045576259,75.06050936596375,-82.06796923479467,1.5075754453602646,,,,3,0,2,3
1788939083.4117672,4344932646.0,-9.42578125,0.875,2.2265625,-0.03125,-0.099609375,-0.015625,24.1875,-9.3125,-35.6875,24.1875,-9.3125,-35.6875,0.06555740813782822,-0.6094788167298657,0.1101192474556772,0.7823755808661262,21.64638383834106,75.49389388456304,-172.7410191846921,0.5133056640625,0.5042724609375,0.3546142578125,-0.5970458984375,21.44714045576259,75.06050936596375,-82.06796923479467,1.4802924773730453,,,,3,0,2,3
1788939083.413884,4344940782.0,-9.50390625,0.875,2.265625,-0.037109375,-0.099609375,-0.017578125,24.1875,-9.3125,-35.6875,24.1875,-9.3125,-35.6875,0.06557844291613793,-0.6092313112300567,0.10952961895513089,0.7826493083195976,21.392160701079046,75.46499568489583,-172.94889429079566,0.51348876953125,0.50390625,0.3544921875,-0.5972900390625,21.328154172799408,75.01906228442033,-82.18403039314626,1.3396963244285023,,,,3,0,2,3
1788939083.413884,4344944312.0,-9.5390625,0.875,2.2265625,-0.046875,-0.11328125,-0.005859375,24.1875,-9.3125,-35.6875,24.1875,-9.3125,-35.6875,0.06555889923890407,-0.609143956253535,0.10928676693988873,0.7827528817335656,21.297157736104044,75.45434314160016,-173.0224655565992,0.51348876953125,0.50390625,0.3544921875,-0.5972900390625,21.328154172799408,75.01906228442033,-82.18403039314626,1.314735427399046,,,,3,0,2,3
1788939083.42906,4344948348.0,-9.578125,0.875,2.2265625,-0.048828125,-0.1171875,-0.00390625,24.125,-8.5,-33.9375,24.125,-8.5,-33.9375,0.06553088868783571,-0.6090263511240288,0.10899946158233145,0.7828867885199594,21.184268210551647,75.43957135427667,-173.1096327429054,0.5137939453125,0.50341796875,0.3543701171875,-0.59747314453125,21.198644365851212,74.9509441096767,-82.27255550966882,1.5424037789532472,,,,3,0,2,3
1788939083.4315288,4344951978.0,-9.54296875,0.8359375,2.265625,-0.05078125,-0.125,-0.0078125,24.125,-8.5,-33.9375,24.125,-8.5,-33.9375,0.06552526208220472,-0.6088885749754963,0.10872586747423196,0.7830324572042614,21.06794164859783,75.42239362366335,-173.20324716895175,0.5137939453125,0.50341796875,0.3543701171875,-0.59747314453125,21.198644365851212,74.9509441096767,-82.27255550966882,1.5181431662690141,,,,3,0,2,3
1788939083.4295757,4344956207.0,-9.5,0.8359375,2.33984375,-0.05078125,-0.125,-0.0078125,24.125,-8.5,-33.9375,24.125,-8.5,-33.9375,0.0655178105549533,-0.6086812952961967,0.10841529368392812,0.7832372701500211,20.929658844191398,75.39564714958264,-173.3157764082857,0.5137939453125,0.50341796875,0.3543701171875,-0.59747314453125,21.198644365851212,74.9509441096767,-82.27255550966882,1.4893058954642495,,,,3,0,2,3
1788939083.4315288,4344960190.0,-9.50390625,0.796875,2.41796875,-0.0546875,-0.12890625,-0.0078125,20.9375,-8.375,-31.25,20.9375,-8.375,-31.25,0.06553793675086934,-0.6084307984743439,0.10816330472934016,0.7834650227191635,20.800031807393157,75.36297934882835,-173.4268382161802,0.51409912109375,0.5029296875,0.354248046875,-0.59771728515625,21.06124509627238,74.89650840123124,-82.3940976530708,1.3768049331236496,,,,3,0,3,3
1788939083.4315288,4344963520.0,-9.46484375,0.796875,2.41796875,-0.041015625,-0.130859375,-0.0078125,20.9375,-8.375,-31.25,20.9375,-8.375,-31.25,0.0655673755112899,-0.6082138025237984,0.10797460567313746,0.7836570514056732,20.695702813616144,75.33470783989489,-173.5185089227263,0.51409912109375,0.5029296875,0.354248046875,-0.59771728515625,21.06124509627238,74.89650840123124,-82.3940976530708,1.3572938256700273,,,,3,0,3,3
1788939083.4457653,4344971009.0,-9.421875,0.796875,2.41796875,-0.0390625,-0.125,0.0078125,20.8125,-8.6875,-30.3125,20.8125,-8.6875,-30.3125,0.06565247921138745,-0.6076548588802384,0.10783643601831644,0.7841024343282602,20.55106334017679,75.25919075655686,-173.65999398762003,0.514404296875,0.50244140625,0.35400390625,-0.5980224609375,20.93237461057701,74.82805350850617,-82.51421042922087,1.292239523462389,,,,3,0,3,3
1788939083.4477184,4344971785.0,-9.46484375,0.796875,2.49609375,-0.0390625,-0.125,0.0078125,20.8125,-8.6875,-30.3125,20.8125,-8.6875,-30.3125,0.06565725177255846,-0.6075963249118099,0.10782146316681372,0.7841494521606863,20.53689932080896,75.25117782355156,-173.67344738908764,0.514404296875,0.50244140625,0.35400390625,-0.5980224609375,20.93237461057701,74.82805350850617,-82.51421042922087,1.289151897648553,,,,3,0,3,3
1788939083.4555914,4344975768.0,-9.42578125,0.796875,2.53125,-0.033203125,-0.115234375,0.017578125,20.8125,-8.6875,-30.3125,20.8125,-8.6875,-30.3125,0.0656593344170581,-0.6073067715586941,0.10776668781251413,0.7843810795912821,20.479537341898357,75.21083106617719,-173.727122445277,0.5146484375,0.50201416015625,0.353759765625,-0.5982666015625,20.823313618288598,74.75285566917931,-82.59675945839712,1.5697735029360662,,,,3,0,3,3
1788939083.4595265,4344979221.0,-9.4609375,0.8359375,2.45703125,-0.033203125,-0.115234375,0.017578125,21.25,-10.0625,-29.6875,21.25,-10.0625,-29.6875,0.06564554911732857,-0.6071166981721675,0.10789442725762297,0.7845118031287733,20.504399436852136,75.18265391317865,-173.71209983422247,0.5146484375,0.50201416015625,0.353759765625,-0.5982666015625,20.823313618288598,74.75285566917931,-82.59675945839712,1.5695663114128044,,,,3,0,3,3
1788939083.4640517,4344983428.0,-9.42578125,0.8359375,2.41796875,-0.03515625,-0.107421875,0.029296875,21.25,-10.0625,-29.6875,21.25,-10.0625,-29.6875,0.06560423174716229,-0.606908333815076,0.10806520642748497,0.784652961685902,20.54928772575587,75.15085197912825,-173.6783885815407,0.5146484375,0.50201416015625,0.353759765625,-0.5982666015625,20.823313618288598,74.75285566917931,-82.59675945839712,1.569793167644216,,,,3,0,3,3
1788939083.4645572,4344987410.0,-9.5,0.8359375,2.41796875,-0.037109375,-0.10546875,0.033203125,21.25,-10.0625,-29.6875,21.25,-10.0625,-29.6875,0.06555911321627435,-0.6067222159162501,0.10822839316800416,0.7847781662993963,20.595147259436885,75.12214975437908,-173.64271929964818,0.5150146484375,0.501708984375,0.353515625,-0.59844970703125,20.793201181745466,74.71503757330959,-82.64719575519825,1.0070915380548962,,,,3,0,3,3
1788939083.4645572,4344994893.0,-9.5390625,0.8359375,2.45703125,-0.033203125,-0.10546875,0.033203125,20.1875,-8.1875,-30.0,20.1875,-8.1875,-30.0,0.06551654229879017,-0.6062682450323261,0.10796064797785015,0.7851693423961719,20.453273251581354,75.0592363876489,-173.7600650885088,0.5150146484375,0.501708984375,0.353515625,-0.59844970703125,20.793201181745466,74.71503757330959,-82.64719575519825,0.9515563723164031,,,,3,0,3,3
1788939083.479933,4344998753.0,-9.5390625,0.875,2.49609375,-0.029296875,-0.099609375,0.041015625,19.375,-9.25,-31.25,19.375,-9.25,-31.25,0.06547585712148372,-0.6060233292346456,0.10809350053532646,0.7853435119102867,20.479783710337962,75.02263717591562,-173.74174449487788,0.51531982421875,0.5013427734375,0.353271484375,-0.59857177734375,20.737534452779567,74.63876839106973,-82.6633936951012,1.4234755740222085,,,,3,0,3,3
1788939083.4827995,4345002959.0,-9.5390625,0.875,2.49609375,-0.029296875,-0.099609375,0.03515625,19.375,-9.25,-31.25,19.375,-9.25,-31.25,0.06544459969452424,-0.6057591789244039,0.10823258119451222,0.785530731345139,20.50356860737142,74.98352783593273,-173.72748244344146,0.51531982421875,0.5013427734375,0.353271484375,-0.59857177734375,20.737534452779567,74.63876839106973,-82.6633936951012,1.4218585389986371,,,,3,0,3,3
1788939083.4890034,4345011248.0,-9.4609375,0.875,2.45703125,-0.01953125,-0.103515625,0.033203125,20.75,-8.75,-30.6875,20.75,-8.75,-30.6875,0.06540164512796952,-0.6051747569733051,0.10837323047457753,0.7859652544822578,20.490616822011233,74.89903404314205,-173.74987571661694,0.515625,0.5010986328125,0.35302734375,-0.59869384765625,20.726325515572707,74.59425780650422,-82.6771609882177,1.2174022490362029,,,,3,0,3,3
1788939083.4890034,4345014925.0,-9.42578125,0.9140625,2.41796875,-0.01953125,-0.103515625,0.033203125,20.75,-8.75,-30.6875,20.75,-8.75,-30.6875,0.06533359266877478,-0.6049515276352155,0.10852847417567373,0.7861213272605635,20.5343412985536,74.8646463272247,-173.71390375065553,0.515625,0.5010986328125,0.35302734375,-0.59869384765625,20.726325515572707,74.59425780650422,-82.6771609882177,1.2166597719351107,,,,3,0,3,3
1788939083.4989898,4345019060.0,-9.34375,0.953125,2.49609375,-0.017578125,-0.1015625,0.03515625,23.4375,-9.9375,-34.1875,23.4375,-9.9375,-34.1875,0.06524964470909346,-0.6046743791053906,0.10865661139083957,0.7863238009369343,20.565677138986487,74.82248714971516,-173.68690929356532,0.51593017578125,0.50079345703125,0.35272216796875,-0.59881591796875,20.701393199085583,74.52054297859073,-82.67539737886602,1.522224387371372,,,,3,0,3,3
1788939083.5038908,4345022490.0,-9.3828125,0.953125,2.41796875,-0.005859375,-0.091796875,0.029296875,23.4375,-9.9375,-34.1875,23.4375,-9.9375,-34.1875,0.06518711613802546,-0.6045029415151597,0.10883005889461572,0.7864368072961244,20.6205128735554,74.79538264604868,-173.6416633732691,0.51593017578125,0.50079345703125,0.35272216796875,-0.59881591796875,20.701393199085583,74.52054297859073,-82.67539737886602,1.5251178615973435,,,,3,0,3,3
1788939083.5098884,4345030426.0,-9.34375,1.02734375,2.41796875,-0.00390625,-0.099609375,0.021484375,23.8125,-7.875,-35.625,23.8125,-7.875,-35.625,0.0650402998647574,-0.6041552614863256,0.10849709263330024,0.786762073502538,20.497998198319443,74.74541222693205,-173.72548584607898,0.51617431640625,0.50054931640625,0.3524169921875,-0.5989990234375,20.6776752473501,74.46655676667366,-82.70332115744426,1.439074734063849,,,,3,0,3,3
1788939083.5128872,4345034156.0,-9.34375,1.02734375,2.49609375,-0.013671875,-0.095703125,0.015625,23.8125,-7.875,-35.625,23.8125,-7.875,-35.625,0.06497436234465137,-0.6039786292404934,0.10833523485752608,0.7869254250226289,20.436402360892597,74.72018173204664,-173.76873616230333,0.51617431640625,0.50054931640625,0.3524169921875,-0.5989990234375,20.6776752473501,74.46655676667366,-82.70332115744426,1.4177913014052157,,,,3,0,3,3
1788939083.5198882,4345037815.0,-9.38671875,0.98828125,2.53125,-0.021484375,-0.091796875,0.005859375,23.1875,-10.3125,-36.3125,23.1875,-10.3125,-36.3125,0.06492166566263907,-0.6037522900136006,0.10840080992185114,0.787094412405023,20.4444855322071,74.68650262727301,-173.7622775830022,0.51641845703125,0.500244140625,0.3521728515625,-0.59918212890625,20.62427197881872,74.41049718034405,-82.74885087003243,1.455347738423584,,,,3,0,3,3
1788939083.521888,4345041821.0,-9.3828125,0.9140625,2.5703125,-0.017578125,-0.083984375,-0.005859375,23.1875,-10.3125,-36.3125,23.1875,-10.3125,-36.3125,0.06493141217084264,-0.6035061819922151,0.10840216401765647,0.7872821418316109,20.41238122501383,74.65214548794228,-173.79587275609538,0.51641845703125,0.500244140625,0.3521728515625,-0.59918212890625,20.62427197881872,74.41049718034405,-82.74885087003243,1.4510068764650907,,,,3,0,3,3
1788939083.5239363,4345046251.0,-9.4609375,0.9140625,2.5703125,-0.017578125,-0.083984375,-0.005859375,23.1875,-10.3125,-36.3125,23.1875,-10.3125,-36.3125,0.06494763301032692,-0.6032340361308951,0.10841127784695896,0.7874880935323246,20.37834239526095,74.61423557120956,-173.8326365142245,0.51641845703125,0.500244140625,0.3521728515625,-0.59918212890625,20.62427197881872,74.41049718034405,-82.74885087003243,1.4482102316487462,,,,3,0,3,3
1788939083.525954,4345050234.0,-9.46484375,0.875,2.609375,-0.01953125,-0.076171875,-0.00390625,24.1875,-8.4375,-33.25,24.1875,-8.4375,-33.25,0.06495867635165456,-0.6030514491890505,0.10823299989093683,0.7876515331872563,20.2919658276078,74.5902373242114,-173.90563754061637,0.5166015625,0.49993896484375,0.35198974609375,-0.599365234375,20.550964674940047,74.35880662986844,-82.80869337772812,1.5570204132230931,,,,3,0,3,3
1788939083.529889,4345053564.0,-9.50390625,0.875,2.609375,-0.017578125,-0.078125,-0.01171875,24.1875,-8.4375,-33.25,24.1875,-8.4375,-33.25,0.06498115986387006,-0.6029001824697839,0.10807431880596853,0.7877872558345135,20.213516531363453,74.57075858902861,-173.9731925988564,0.5166015625,0.49993896484375,0.35198974609375,-0.599365234375,20.550964674940047,74.35880662986844,-82.80869337772812,1.5463209362415966,,,,3,0,3,3
1788939083.525954,4345060900.0,-9.5,0.875,2.5703125,-0.017578125,-0.0703125,-0.015625,19.8125,-9.1875,-30.5,19.8125,-9.1875,-30.5,0.06509441143663147,-0.6025547046114902,0.1082652843466194,0.7880159730333034,20.21000441742504,74.52358868719747,-174.0025701302228,0.5167236328125,0.49969482421875,0.3519287109375,-0.59954833984375,20.471236876300516,74.34036977322225,-82.89815365578396,1.3034661580652906,,,,3,0,3,3
1788939083.529889,4345061553.0,-9.54296875,0.875,2.6484375,-0.0234375,-0.068359375,-0.013671875,19.8125,-9.1875,-30.5,19.8125,-9.1875,-30.5,0.06510241093680716,-0.6025210930920745,0.10827435953238061,0.7880397652004623,20.20714726318611,74.51899685075098,-174.0069121518508,0.5167236328125,0.49969482421875,0.3519287109375,-0.59954833984375,20.471236876300516,74.34036977322225,-82.89815365578396,1.3044248091056088,,,,3,0,3,3
1788939083.5440419,4345066359.0,-9.6171875,0.875,2.5703125,-0.0234375,-0.068359375,-0.013671875,19.8125,-9.1875,-30.5,19.8125,-9.1875,-30.5,0.0651817115536176,-0.6023264942431954,0.10841328136329526,0.7881628633954317,20.21217776067927,74.49258823562381,-174.02031334767386,0.5167236328125,0.49969482421875,0.3519287109375,-0.59954833984375,20.471236876300516,74.34036977322225,-82.89815365578396,1.3202930761682836,,,,3,0,3,3
1788939083.545995,4345069065.0,-9.6171875,0.875,2.5703125,-0.009765625,-0.060546875,-0.017578125,19.5625,-9.0625,-29.875,19.5625,-9.0625,-29.875,0.06523972820154102,-0.6022292146139108,0.10850654621957156,0.7882195635463518,20.218354061646597,74.47967063950516,-174.02682425759141,0.516845703125,0.4993896484375,0.351806640625,-0.5997314453125,20.37846807869159,74.29303665210013,-82.9719360414554,1.5465028110849537,,,,3,0,3,3
1788939083.545995,4345073548.0,-9.62109375,0.875,2.53125,-0.013671875,-0.05859375,-0.01953125,19.5625,-9.0625,-29.875,19.5625,-9.0625,-29.875,0.06533312639557702,-0.6021123668158465,0.10865948132070975,0.7882800247639882,20.233974444663314,74.46444450430138,-174.0317650370934,0.516845703125,0.4993896484375,0.351806640625,-0.5997314453125,20.37846807869159,74.29303665210013,-82.9719360414554,1.563358633313542,,,,3,0,3,3
1788939083.5597973,4345081407.0,-9.6171875,0.875,2.5703125,-0.017578125,-0.05078125,-0.021484375,19.5625,-9.0625,-29.875,19.5625,-9.0625,-29.875,0.06549786198671148,-0.6018679502579453,0.10889934344035718,0.7884198967084279,20.246752914517682,74.43244255218771,-174.05288093800243,0.516845703125,0.49920654296875,0.35174560546875,-0.59991455078125,20.296677100910554,74.2719062270771,-83.05592861390156,1.6135299539701737,,,,3,0,3,3
1788939083.5617359,4345081760.0,-9.66015625,0.8359375,2.53125,-0.00390625,-0.0546875,-0.021484375,20.875,-9.125,-30.0625,20.875,-9.125,-30.0625,0.0655103788061056,-0.6018613524844943,0.10891027249016215,0.7884223837514599,20.246646725592626,74.43174832507081,-174.05493151130415,0.516845703125,0.49920654296875,0.35174560546875,-0.59991455078125,20.296677100910554,74.2719062270771,-83.05592861390156,1.6152286405351703,,,,3,0,3,3
1788939083.5637324,4345084937.0,-9.58203125,0.8359375,2.53125,-0.00390625,-0.0546875,-0.021484375,20.875,-9.125,-30.0625,20.875,-9.125,-30.0625,0.06562159560521337,-0.6017830044308283,0.10901500833917777,0.7884584641724892,20.24598554590769,74.42275333729035,-174.07354686555405,0.516845703125,0.49920654296875,0.35174560546875,-0.59991455078125,20.296677100910554,74.2719062270771,-83.05592861390156,1.630701310750917,,,,3,0,3,3
1788939083.5637324,4345089573.0,-9.50390625,0.875,2.53125,-0.005859375,-0.052734375,-0.015625,21.4375,-7.75,-30.125,21.4375,-7.75,-30.125,0.06567567605938784,-0.6016667851154897,0.10876447375690168,0.7885772470159901,20.13348033887662,74.40964765138429,-174.17008437685914,0.51690673828125,0.49896240234375,0.3516845703125,-0.60009765625,20.205791012473544,74.24437531297217,-83.14267483283436,1.6359840580511036,,,,3,0,3,3
1788939083.5637324,4345092603.0,-9.46484375,0.8359375,2.53125,-0.015625,-0.056640625,-0.0078125,21.4375,-7.75,-30.125,21.4375,-7.75,-30.125,0.06570398689548751,-0.6015865642306355,0.10859628124382507,0.7886592670749701,20.059752736475765,74.4003170643726,-174.23244242624685,0.51690673828125,0.49896240234375,0.3516845703125,-0.60009765625,20.205791012473544,74.24437531297217,-83.14267483283436,1.6258727500825374,,,,3,0,3,3
1788939083.5790334,4345100939.0,-9.4609375,0.875,2.41796875,-0.017578125,-0.0625,-0.0078125,20.375,-7.3125,-30.5625,20.375,-7.3125,-30.5625,0.06570684806678409,-0.601471971566887,0.10809336879338453,0.7888155051464618,19.87414324403276,74.38790633493826,-174.37704852828034,0.5169677734375,0.498779296875,0.35162353515625,-0.60028076171875,20.136544155220967,74.23229333188034,-83.22809818922204,1.3353569445422533,,,,3,0,3,3
1788939083.5790334,4345104268.0,-9.50390625,0.9140625,2.3046875,-0.005859375,-0.056640625,-0.00390625,20.375,-7.3125,-30.5625,20.375,-7.3125,-30.5625,0.06569768475502925,-0.6014772745018847,0.10794986905076381,0.7888318757805975,19.828022413943682,74.38944417449677,-174.41056017916563,0.5169677734375,0.498779296875,0.35162353515625,-0.60028076171875,20.136544155220967,74.23229333188034,-83.22809818922204,1.32326043823351,,,,3,0,3,3
1788939083.5890653,4345108904.0,-9.42578125,0.953125,2.33984375,0.013671875,-0.0546875,-0.017578125,20.0,-8.8125,-31.125,20.0,-8.8125,-31.125,0.0657256178032702,-0.6014741056459814,0.10806877860727034,0.7888156834724308,19.8614082034793,74.38884453249491,-174.38928775296176,0.51702880859375,0.49859619140625,0.35150146484375,-0.6004638671875,20.075783746799978,74.20689685212625,-83.29685024254529,1.2601158853045509,,,,3,0,3,3
1788939083.5890653,4345112134.0,-9.3125,0.9140625,2.53125,0.001953125,-0.060546875,-0.01953125,20.0,-8.8125,-31.125,20.0,-8.8125,-31.125,0.06575216731725307,-0.601313186688406,0.10813710455493379,0.7889267840720033,19.859785179455013,74.36639081538641,-174.39911597775742,0.51702880859375,0.49859619140625,0.35150146484375,-0.6004638671875,20.075783746799978,74.20689685212625,-83.29685024254529,1.2660551071835406,,,,3,0,3,3
1788939083.594087,4345120270.0,-9.31640625,0.875,2.5703125,-0.021484375,-0.064453125,-0.017578125,22.6875,-7.625,-34.75,22.6875,-7.625,-34.75,0.06576716674997787,-0.6010653147594498,0.10764938892143694,0.7891810794967434,19.66188874849712,74.33531221226023,-174.55858197703833,0.51702880859375,0.4984130859375,0.35137939453125,-0.6007080078125,19.994772799658808,74.18527867442792,-83.39575693894803,1.069225597091753,,,,3,0,3,3
1788939083.594087,4345123800.0,-9.31640625,0.8359375,2.49609375,-0.033203125,-0.05859375,-0.021484375,22.6875,-7.625,-34.75,22.6875,-7.625,-34.75,0.06577105794603447,-0.6009901776829912,0.1074046585857888,0.7892713181025244,19.569251971749036,74.32651187352808,-174.6315185487765,0.51702880859375,0.4984130859375,0.35137939453125,-0.6007080078125,19.994772799658808,74.18527867442792,-83.39575693894803,1.0456678169357627,,,,3,0,3,3
1788939083.594087,4345128635.0,-9.3125,0.8359375,2.53125,-0.025390625,-0.05078125,-0.017578125,23.125,-9.875,-36.5625,23.125,-9.875,-36.5625,0.06583214474533491,-0.600805165498664,0.10719021709348209,0.789436216035092,19.460894389896715,74.30340723018232,-174.72763210027023,0.51708984375,0.49810791015625,0.351318359375,-0.600830078125,19.892355167346164,74.12960564493297,-83.45046019639545,1.7000832267648147,,,,3,0,3,3
1788939083.6098967,4345131665.0,-9.38671875,0.8359375,2.6484375,-0.0234375,-0.052734375,-0.021484375,23.125,-9.875,-36.5625,23.125,-9.875,-36.5625,0.06586591762346043,-0.6006722453141351,0.10708821917379562,0.7895483822534755,19.40336845256563,74.28619658017672,-174.77982985987455,0.51708984375,0.49810791015625,0.351318359375,-0.600830078125,19.892355167346164,74.12960564493297,-83.45046019639545,1.695747811021588,,,,3,0,3,3
1788939083.6079435,4345135895.0,-9.3828125,0.8359375,2.7265625,-0.0234375,-0.052734375,-0.021484375,23.125,-9.875,-36.5625,23.125,-9.875,-36.5625,0.06590616840944107,-0.6004815743609623,0.10696202124551166,0.7897071494102363,19.329872500034433,74.26116204234845,-174.84667140392006,0.51708984375,0.49810791015625,0.351318359375,-0.600830078125,19.892355167346164,74.12960564493297,-83.45046019639545,1.6905631809016142,,,,3,0,3,3
1788939083.6098967,4345140078.0,-9.38671875,0.8359375,2.6484375,-0.02734375,-0.044921875,-0.0078125,22.125,-6.875,-36.125,22.125,-6.875,-36.125,0.06588509956971295,-0.6003922862454748,0.10671185694718607,0.7898106329105122,19.240504535372004,74.24971069042797,-174.9138787997705,0.5172119140625,0.49786376953125,0.351318359375,-0.6009521484375,19.815033385825323,74.11158554372719,-83.52212796001787,1.5650128512995058,,,,3,0,3,3
1788939083.6098967,4345144184.0,-9.42578125,0.875,2.6875,-0.021484375,-0.0390625,-0.00390625,22.125,-6.875,-36.125,22.125,-6.875,-36.125,0.06585793348830471,-0.6003056899977653,0.1064868328584809,0.7899090869085674,19.161537308586407,74.23831204916314,-174.97225427268364,0.5172119140625,0.49786376953125,0.351318359375,-0.6009521484375,19.815033385825323,74.11158554372719,-83.52212796001787,1.5491689709462662,,,,3,0,3,3
1788939083.6259909,4345147567.0,-9.421875,0.875,2.6484375,-0.015625,-0.0390625,0.001953125,22.125,-6.875,-36.125,22.125,-6.875,-36.125,0.06583225184880655,-0.6002385926066564,0.10631102435285193,0.7899858939646599,19.101055294401977,74.22936826536852,-175.01628149865735,0.517333984375,0.49774169921875,0.351318359375,-0.60107421875,19.779970910341937,74.1242677460268,-83.59159372621461,0.6262746658877241,,,,3,0,3,3
1788939083.6169631,4345152073.0,-9.421875,0.8359375,2.6484375,-0.0078125,-0.037109375,0.0,22.125,-6.875,-36.125,22.125,-6.875,-36.125,0.06581899854569156,-0.6001543283105807,0.10608606169112675,0.7900812547804082,19.019166996025152,74.2185984678007,-175.0787191631954,0.517333984375,0.49774169921875,0.351318359375,-0.60107421875,19.779970910341937,74.1242677460268,-83.59159372621461,0.5903489275814953,,,,3,0,3,3
1788939083.61922,4345155626.0,-9.421875,0.8359375,2.6484375,-0.0078125,-0.037109375,0.0,22.125,-6.875,-36.125,22.125,-6.875,-36.125,0.06580808163716587,-0.6000880613523898,0.10590854744679241,0.7901563102268292,18.95475829341289,74.21010794781024,-175.1277417555147,0.517333984375,0.49774169921875,0.351318359375,-0.60107421875,19.779970910341937,74.1242677460268,-83.59159372621461,0.5613845483010779,,,,3,0,3,3
1788939083.641927,4345161039.0,-9.46484375,0.8359375,2.6484375,0.0078125,-0.033203125,0.00390625,18.9375,-9.0,-29.9375,18.9375,-9.0,-29.9375,0.06588040459475117,-0.5999137356502746,0.10615523924598914,0.7902495474526962,19.002094629017222,74.18574397247373,-175.10711916524247,0.51739501953125,0.49755859375,0.3511962890625,-0.60113525390625,19.737201411701236,74.07348907136196,-83.59546951552353,1.45142821957356,,,,3,0,3,3
1788939083.641927,4345163315.0,-9.3828125,0.8359375,2.6875,0.0078125,-0.033203125,0.00390625,18.9375,-9.0,-29.9375,18.9375,-9.0,-29.9375,0.06590728894211467,-0.5998279732495552,0.10624111797276231,0.7903008646227898,19.01547909896994,74.17377358095828,-175.10323579563163,0.51739501953125,0.49755859375,0.3511962890625,-0.60113525390625,19.737201411701236,74.07348907136196,-83.59546951552353,1.458579688887141,,,,3,0,3,3
1788939083.641927,4345171204.0,-9.38671875,0.8359375,2.609375,0.005859375,-0.029296875,0.015625,20.75,-8.75,-30.6875,20.75,-8.75,-30.6875,0.06597913407844382,-0.5995175842824965,0.10649890439462308,0.7904956694157682,19.052113209762155,74.13018790132591,-175.09452713132166,0.51739501953125,0.49749755859375,0.35107421875,-0.60125732421875,19.716146034840882,74.05716096313337,-83.6275569590751,1.4685512228186324,,,,3,0,3,3
1788939083.6538277,4345175764.0,-9.38671875,0.8359375,2.609375,0.005859375,-0.02734375,0.015625,20.75,-8.75,-30.6875,20.75,-8.75,-30.6875,0.06602966518790719,-0.5993373488404068,0.10664898316388813,0.7906078800456229,19.0713485721709,74.10509237645962,-175.09226492879606,0.5174560546875,0.49749755859375,0.3509521484375,-0.601318359375,19.73641315966236,74.05241687884768,-83.62843169761273,1.2304557147936437,,,,3,0,3,3
1788939083.6577628,4345178617.0,-9.3125,0.875,2.609375,0.005859375,-0.02734375,0.015625,19.0,-8.375,-31.5625,19.0,-8.375,-31.5625,0.06601675959610484,-0.5992310204438622,0.10662315222651801,0.7906930346218553,19.05453703321411,74.08998704273493,-175.1061449618249,0.5174560546875,0.49749755859375,0.3509521484375,-0.601318359375,19.73641315966236,74.05241687884768,-83.62843169761273,1.2273283089024885,,,,3,0,3,3
1788939083.6625886,4345182923.0,-9.34765625,0.8359375,2.609375,0.01171875,-0.0234375,0.017578125,19.0,-8.375,-31.5625,19.0,-8.375,-31.5625,0.0660367017696436,-0.5990941472607396,0.10655121773771944,0.7908047766269014,19.011189623853447,74.07164415675302,-175.14552436910293,0.5174560546875,0.49749755859375,0.3509521484375,-0.601318359375,19.73641315966236,74.05241687884768,-83.62843169761273,1.2245907629456316,,,,3,0,3,3
1788939083.6606355,4345187282.0,-9.31640625,0.8359375,2.5703125,0.009765625,-0.0234375,0.01953125,19.0,-8.375,-31.5625,19.0,-8.375,-31.5625,0.0660552257216881,-0.598970226033443,0.10645118285839991,0.7909105645699459,18.96021418324561,74.05525595496152,-175.19006430109823,0.5174560546875,0.49749755859375,0.350830078125,-0.60137939453125,19.744750078341355,74.0387424024313,-83.62762341840411,1.273556158292178,,,,3,0,3,3
1788939083.6737113,4345194489.0,-9.34375,0.875,2.5703125,0.0078125,-0.015625,0.025390625,21.25,-9.5625,-29.6875,21.25,-9.5625,-29.6875,0.06602078732692361,-0.5988795902737238,0.10688078521925226,0.7909241365296837,19.102893948897428,74.03905400574394,-175.0802476415629,0.5174560546875,0.49749755859375,0.350830078125,-0.60137939453125,19.744750078341355,74.0387424024313,-83.62762341840411,1.3004593381870266,,,,3,0,3,3
1788939083.6737113,4345198348.0,-9.34765625,0.8359375,2.53125,0.005859375,-0.01171875,0.025390625,18.75,-8.75,-30.9375,18.75,-8.75,-30.9375,0.06608502061175035,-0.5988525894868995,0.10708048850979776,0.790912204417205,19.151549048962643,74.03553788032501,-175.05341622206976,0.51751708984375,0.49749755859375,0.35064697265625,-0.60137939453125,19.781719991264616,74.00820589682854,-83.58039091360483,1.6082879448678715,,,,3,0,3,3
1788939083.6737113,4345202854.0,-9.421875,0.8359375,2.53125,0.0078125,-0.017578125,0.021484375,18.75,-8.75,-30.9375,18.75,-8.75,-30.9375,0.06617613826223227,-0.5988592833953805,0.10727469448301631,0.7908731992800394,19.195496129240254,74.03743135500841,-175.03296235867023,0.51751708984375,0.49749755859375,0.35064697265625,-0.60137939453125,19.781719991264616,74.00820589682854,-83.58039091360483,1.6268820790535878,,,,3,0,3,3
1788939083.6872144,4345206237.0,-9.50390625,0.875,2.53125,0.005859375,-0.017578125,0.025390625,18.75,-8.75,-30.9375,18.75,-8.75,-30.9375,0.06618394723256486,-0.5988763811867087,0.10743101060810618,0.7908383799140947,19.24779622999997,74.03903691630812,-174.994167308751,0.517578125,0.49755859375,0.35052490234375,-0.6014404296875,19.822834863105747,74.01873037631485,-83.58036284315229,1.0899539609328461,,,,3,0,3,3
1788939083.689211,4345211520.0,-9.5390625,0.8359375,2.49609375,0.00390625,-0.01953125,0.02734375,19.625,-9.3125,-31.5625,19.625,-9.3125,-31.5625,0.06620748620619706,-0.598910785322058,0.10765300914824012,0.7907801651638089,19.320198790007666,74.04302521442648,-174.9419412894014,0.517578125,0.49755859375,0.35052490234375,-0.6014404296875,19.822834863105747,74.01873037631485,-83.58036284315229,1.1123677729842474,,,,3,0,3,3
1788939083.6872578,4345216203.0,-9.54296875,0.875,2.53125,0.0078125,-0.0234375,0.02734375,19.625,-9.3125,-31.5625,19.625,-9.3125,-31.5625,0.06621589265894891,-0.5989017798820462,0.1078982703500063,0.7907528544804454,19.399373598846342,74.04038585474042,-174.883730077274,0.51763916015625,0.49755859375,0.35040283203125,-0.6014404296875,19.85135773239364,74.0013445937367,-83.54955263907796,1.2553985162942005,,,,3,0,3,3
1788939083.689211,4345220609.0,-9.578125,0.875,2.5703125,0.0,-0.017578125,0.029296875,24.0,-8.625,-34.625,24.0,-8.625,-34.625,0.06617814125181766,-0.5988832111948744,0.10771756340542235,0.7907947138817816,19.345880770199113,74.03803279728417,-174.91925018633384,0.51763916015625,0.49755859375,0.35040283203125,-0.6014404296875,19.85135773239364,74.0013445937367,-83.54955263907796,1.2368989846309217,,,,3,0,3,3
1788939083.689211,4345222262.0,-9.578125,0.8359375,2.5703125,0.0,-0.017578125,0.029296875,24.0,-8.625,-34.625,24.0,-8.625,-34.625,0.06617072041595098,-0.5988771790941011,0.10765015634892186,0.7908090818636182,19.32443468301275,74.03743892003659,-174.9345364700313,0.51763916015625,0.49755859375,0.35040283203125,-0.6014404296875,19.85135773239364,74.0013445937367,-83.54955263907796,1.230731626311511,,,,3,0,3,3
1788939083.7032113,4345226145.0,-9.58203125,0.875,2.53125,0.0078125,-0.021484375,0.025390625,24.0,-8.625,-34.625,24.0,-8.625,-34.625,0.06615068106959601,-0.5988822458783774,0.10750030908773027,0.7908273051126534,19.279584984047204,74.03862680128853,-174.96535685676258,0.51776123046875,0.49755859375,0.3502197265625,-0.6014404296875,19.899987341299305,73.97972598723747,-83.50431149722029,1.2259841614082263,,,,3,0,3,3
1788939083.7051644,4345234028.0,-9.4609375,0.796875,2.53125,0.001953125,-0.029296875,0.037109375,22.4375,-8.875,-36.625,22.4375,-8.875,-36.625,0.06609143989376907,-0.5988216088263466,0.10719901085676181,0.7909190694671144,19.186414838357233,74.03059261425857,-175.02893889898417,0.51776123046875,0.49755859375,0.3502197265625,-0.6014404296875,19.899987341299305,73.97972598723747,-83.50431149722029,1.1965498317682586,,,,3,0,3,3
1788939083.7051644,4345237410.0,-9.46484375,0.8359375,2.53125,0.013671875,-0.02734375,0.04296875,22.4375,-8.875,-36.625,22.4375,-8.875,-36.625,0.06605673769528664,-0.5987973405091698,0.10709082188678384,0.7909549976274343,19.155927770219076,74.02703300108934,-175.04770611512015,0.51788330078125,0.49755859375,0.35003662109375,-0.6014404296875,19.94850061465368,73.9581172150536,-83.4592144895884,1.1944177720118558,,,,3,0,3,3
1788939083.7209466,4345241717.0,-9.4609375,0.8359375,2.49609375,0.01953125,-0.02734375,0.04296875,22.4375,-8.875,-36.625,22.4375,-8.875,-36.625,0.06601829120496179,-0.5987869540009493,0.10696623600562508,0.7909829285764838,19.1223255752709,74.02543703663453,-175.06789350118888,0.51788330078125,0.49755859375,0.35003662109375,-0.6014404296875,19.94850061465368,73.9581172150536,-83.4592144895884,1.1810809813435759,,,,3,0,3,3
1788939083.7209466,4345246070.0,-9.42578125,0.8359375,2.49609375,0.01953125,-0.02734375,0.04296875,22.4375,-8.875,-36.625,22.4375,-8.875,-36.625,0.06597781092040317,-0.59877184222354,0.10683901667850894,0.791014939139299,19.087837789095996,74.02314303444093,-175.08859397907844,0.51788330078125,0.49755859375,0.35003662109375,-0.6014404296875,19.94850061465368,73.9581172150536,-83.4592144895884,1.1673763897735188,,,,3,0,3,3
1788939083.7209466,4345249053.0,-9.42578125,0.875,2.49609375,0.017578125,-0.03515625,0.0546875,23.9375,-8.375,-32.875,23.9375,-8.375,-32.875,0.0659322675056364,-0.5987647827910977,0.10676515204114549,0.7910340531862874,19.073267775620533,74.02152980272095,-175.093346671721,0.51800537109375,0.49761962890625,0.34979248046875,-0.6014404296875,20.026034881248705,73.93862733154363,-83.397127971024,1.0544922780599988,,,,3,0,3,3
1788939083.7209466,4345253359.0,-9.3828125,0.875,2.49609375,0.01953125,-0.033203125,0.052734375,23.9375,-8.375,-32.875,23.9375,-8.375,-32.875,0.06586844852685064,-0.5987480627957855,0.10665459249598308,0.791066939447273,19.04977840045748,74.01835326796059,-175.1025136650892,0.51800537109375,0.49761962890625,0.34979248046875,-0.6014404296875,20.026034881248705,73.93862733154363,-83.397127971024,1.0380912040444288,,,,3,0,3,3
1788939083.7392845,4345257595.0,-9.34375,0.8359375,2.49609375,0.0234375,-0.033203125,0.056640625,20.0625,-8.25,-30.6875,20.0625,-8.25,-30.6875,0.06587308452552847,-0.5987733223601405,0.10661584922315402,0.7910526568183168,19.038359379930284,74.02225444796542,-175.11105255477295,0.5181884765625,0.49761962890625,0.34954833984375,-0.60137939453125,20.102550402120755,73.90022139087914,-83.30639405377228,1.3440373453472099,,,,3,0,3,3
1788939083.728217,4345264725.0,-9.31640625,0.875,2.5703125,0.01953125,-0.03515625,0.0546875,20.0625,-8.25,-30.6875,20.0625,-8.25,-30.6875,0.06576324592981087,-0.5984675880592674,0.10666945554404422,0.7912858957300044,19.050443700387472,73.97633819414108,-175.09513255620695,0.5181884765625,0.49761962890625,0.34954833984375,-0.60137939453125,20.102550402120755,73.90022139087914,-83.30639405377228,1.3358133924638897,,,,3,0,3,3
1788939083.7392845,4345269260.0,-9.34765625,0.8359375,2.53125,0.01953125,-0.033203125,0.0546875,19.0625,-9.25,-31.3125,19.0625,-9.25,-31.3125,0.06575965134611782,-0.5983996847935563,0.10698173045683748,0.7912953903835597,19.148359058133266,73.9647609737055,-175.02287228399962,0.518310546875,0.4976806640625,0.3492431640625,-0.6014404296875,20.17956663142164,73.88022308600782,-83.26042481200876,1.0867783340748869,,,,3,0,3,3
1788939083.7392845,4345272690.0,-9.34765625,0.875,2.609375,0.01953125,-0.033203125,0.0546875,19.0625,-9.25,-31.3125,19.0625,-9.25,-31.3125,0.06573828774493307,-0.5982904163562418,0.10721866958370141,0.7913477188400433,19.220894394968365,73.94740248229968,-174.96841753352948,0.518310546875,0.4976806640625,0.3492431640625,-0.6014404296875,20.17956663142164,73.88022308600782,-83.26042481200876,1.1012581930316792,,,,3,0,3,3
1788939083.7532115,4345280626.0,-9.421875,0.875,2.6484375,0.013671875,-0.029296875,0.05859375,20.25,-8.125,-29.625,20.25,-8.125,-29.625,0.0656498709328127,-0.5979536411644059,0.10732455332379033,0.7915952107728943,19.24150204897392,73.89731619997623,-174.9501307620608,0.5184326171875,0.49774169921875,0.34893798828125,-0.6014404296875,20.264604491625168,73.84770263470712,-83.18313398506542,1.2355736708848295,,,,3,0,3,3
1788939083.7532115,4345285132.0,-9.421875,0.953125,2.6484375,0.021484375,-0.021484375,0.05859375,20.25,-8.125,-29.625,20.25,-8.125,-29.625,0.0655231671231759,-0.597771729703257,0.10750798038085416,0.7917181997984853,19.313121379253054,73.86757100466814,-174.8837136714716,0.5184326171875,0.49774169921875,0.34893798828125,-0.6014404296875,20.264604491625168,73.84770263470712,-83.18313398506542,1.2348925938896806,,,,3,0,3,3
1788939083.7694101,4345288392.0,-9.42578125,0.98828125,2.7265625,0.0234375,-0.025390625,0.0546875,20.4375,-8.75,-30.6875,20.4375,-8.75,-30.6875,0.06545385204072235,-0.5976401803474178,0.10767957422145387,0.7917999225706096,19.372409821071862,73.84633327231272,-174.8332355076692,0.5185546875,0.49786376953125,0.3486328125,-0.60137939453125,20.378487303354763,73.81781433428232,-83.07358121586054,1.421547252857583,,,,3,0,3,3
1788939083.7694101,4345292798.0,-9.4609375,0.953125,2.76171875,0.0234375,-0.0234375,0.048828125,20.4375,-8.75,-30.6875,20.4375,-8.75,-30.6875,0.0653943309448927,-0.5974574893033268,0.10786726827210041,0.7919171562677182,19.429135302533385,73.81804144517818,-174.7875820261286,0.5185546875,0.49786376953125,0.3486328125,-0.60137939453125,20.378487303354763,73.81781433428232,-83.07358121586054,1.427926226592675,,,,3,0,3,3
1788939083.7694101,4345299957.0,-9.42578125,1.02734375,2.7265625,0.01953125,-0.013671875,0.046875,20.5,-9.6875,-30.4375,20.5,-9.6875,-30.4375,0.06527566369624674,-0.597290112953634,0.10835319450029299,0.7919868647511974,19.59972638221913,73.78846551158978,-174.64780784277986,0.5186767578125,0.4979248046875,0.348388671875,-0.60137939453125,20.45496270956308,73.79834954657458,-83.0127953595113,1.3602581824129856,,,,3,0,3,3
1788939083.7694101,4345304464.0,-9.42578125,1.14453125,2.76171875,0.009765625,-0.0078125,0.037109375,20.5,-9.6875,-30.4375,20.5,-9.6875,-30.4375,0.065180006986143,-0.5971946606401615,0.10862210777495665,0.7920298868696145,19.700611616852573,73.77093150812298,-174.5615260121409,0.5186767578125,0.4979248046875,0.348388671875,-0.60137939453125,20.45496270956308,73.79834954657458,-83.0127953595113,1.3691726763686918,,,,3,0,3,3
1788939083.7855122,4345308323.0,-9.421875,1.1796875,2.76171875,0.01171875,-0.009765625,0.029296875,20.375,-9.75,-31.1875,20.375,-9.75,-31.1875,0.0651055630425644,-0.5971087606004234,0.10884215181804865,0.7920705648253529,19.781276819623447,73.75556023284109,-174.49314541332268,0.51873779296875,0.498046875,0.34820556640625,-0.60137939453125,20.532506146466677,73.7982225605964,-82.96509172294283,1.0564933360231776,,,,3,0,3,3
1788939083.7895503,4345312329.0,-9.421875,1.14453125,2.80078125,0.00390625,0.001953125,0.015625,20.375,-9.75,-31.1875,20.375,-9.75,-31.1875,0.065046525051216,-0.5970301662219476,0.10903379630548257,0.792108301599579,19.849655765285032,73.74176823795727,-174.43595183516553,0.51873779296875,0.498046875,0.34820556640625,-0.60137939453125,20.532506146466677,73.7982225605964,-82.96509172294283,1.066670814019009,,,,3,0,3,3
1788939083.7875972,4345315582.0,-9.38671875,1.10546875,2.83984375,0.00390625,0.001953125,0.015625,20.375,-9.75,-31.1875,20.375,-9.75,-31.1875,0.06500683761269581,-0.5969557929356383,0.10917646984874547,0.792147960153623,19.897764065152504,73.72937509669703,-174.39656106958887,0.51873779296875,0.498046875,0.34820556640625,-0.60137939453125,20.532506146466677,73.7982225605964,-82.96509172294283,1.0753135109970067,,,,3,0,3,3
1788939083.7895503,4345319565.0,-9.34765625,0.98828125,2.80078125,-0.005859375,0.01171875,0.00390625,24.125,-7.375,-35.5,24.125,-7.375,-35.5,0.06497527790178984,-0.596927274786513,0.10901831932777258,0.7921938196732413,19.849932336792595,73.72572015702573,-174.42880858468212,0.51873779296875,0.49810791015625,0.34814453125,-0.60137939453125,20.561422415025344,73.80029423598775,-82.94823907919361,0.9300601962034056,,,,3,0,3,3
1788939083.8014545,4345323871.0,-9.3125,0.98828125,2.80078125,-0.0078125,0.017578125,0.00390625,24.125,-7.375,-35.5,24.125,-7.375,-35.5,0.06493645891227925,-0.5969044164540568,0.10884747523567555,0.7922377175169046,19.800250444414733,73.72276341633659,-174.46124797912137,0.51873779296875,0.49810791015625,0.34814453125,-0.60137939453125,20.561422415025344,73.80029423598775,-82.94823907919361,0.9089570146087709,,,,3,0,3,3
1788939083.8014545,4345327254.0,-9.3125,0.98828125,2.80078125,-0.00390625,0.03515625,-0.001953125,24.125,-7.375,-35.5,24.125,-7.375,-35.5,0.06491413372087076,-0.5969104389549682,0.10871476847805431,0.7922532311228647,19.762427167184065,73.72398462215237,-174.4862607959747,0.5186767578125,0.49810791015625,0.34820556640625,-0.601318359375,20.54992118006032,73.79208402017817,-82.93066253202466,1.4294925516291819,,,,3,0,3,3
1788939083.8014545,4345331760.0,-9.27734375,0.953125,2.80078125,-0.0078125,0.04296875,-0.005859375,24.125,-7.375,-35.5,24.125,-7.375,-35.5,0.06489088559257712,-0.5969343748386308,0.10852545058851595,0.7922630571202873,19.70811761009609,73.72808049052144,-174.52296292926465,0.5186767578125,0.49810791015625,0.34820556640625,-0.601318359375,20.54992118006032,73.79208402017817,-82.93066253202466,1.4159614197193797,,,,3,0,3,3
1788939083.8014545,4345335314.0,-9.3125,0.98828125,2.80078125,-0.0078125,0.04296875,-0.005859375,24.125,-7.375,-35.5,24.125,-7.375,-35.5,0.06486645649048074,-0.5969521570124141,0.10837817533708594,0.7922718196245518,19.66724522399738,73.73099037414428,-174.54962007167612,0.5186767578125,0.49810791015625,0.34820556640625,-0.601318359375,20.54992118006032,73.79208402017817,-82.93066253202466,1.4050392604342627,,,,3,0,3,3
1788939083.8171377,4345339873.0,-9.2734375,1.02734375,2.76171875,-0.005859375,0.046875,-0.009765625,22.75,-9.875,-37.0,22.75,-9.875,-37.0,0.06481600329098257,-0.596912921309512,0.10836476896372674,0.7923073437363596,19.67036742431292,73.72435807680297,-174.5413485652229,0.51861572265625,0.49822998046875,0.34832763671875,-0.6011962890625,20.580530445070615,73.81453058995781,-82.89516113991515,1.422948180901248,,,,3,0,2,3
1788939083.8171377,4345343203.0,-9.3125,1.06640625,2.6875,0.005859375,0.056640625,-0.015625,22.75,-9.875,-37.0,22.75,-9.875,-37.0,0.06476197263624996,-0.5969029968191686,0.10839702054207338,0.7923148270896856,19.692510690981273,73.72142964142141,-174.51746102594046,0.51861572265625,0.49822998046875,0.34832763671875,-0.6011962890625,20.580530445070615,73.81453058995781,-82.89516113991515,1.4202789960618887,,,,3,0,2,3
1788939083.8171377,4345347362.0,-9.3125,1.02734375,2.6484375,0.005859375,0.0625,-0.033203125,22.6875,-11.1875,-33.375,22.6875,-11.1875,-33.375,0.06479737479569851,-0.5969805323525449,0.10857889522020694,0.7922286082466456,19.752530257672337,73.73189184273464,-174.47517733207633,0.5184326171875,0.49835205078125,0.3485107421875,-0.60113525390625,20.571594674051067,73.8450282043959,-82.90328755817497,1.4942819717829015,,,,3,0,2,3
1788939083.8171377,4345350892.0,-9.34765625,1.06640625,2.7265625,0.01171875,0.072265625,-0.048828125,22.6875,-11.1875,-33.375,22.6875,-11.1875,-33.375,0.0648487734856886,-0.5970454217939131,0.10872093093797468,0.7921560200290789,19.794381569835856,73.74124580892048,-174.44911497148146,0.5184326171875,0.49835205078125,0.3485107421875,-0.60113525390625,20.571594674051067,73.8450282043959,-82.90328755817497,1.5053219090139085,,,,3,0,2,3
1788939083.8329856,4345355245.0,-9.421875,1.10546875,2.45703125,0.01171875,0.072265625,-0.048828125,22.6875,-11.1875,-33.375,22.6875,-11.1875,-33.375,0.0649041015421306,-0.5972049910922878,0.10888556662618928,0.7920085792451763,19.853172045621424,73.76379342077766,-174.408066261797,0.5184326171875,0.49835205078125,0.3485107421875,-0.60113525390625,20.571594674051067,73.8450282043959,-82.90328755817497,1.516749443071522,,,,3,0,2,3
1788939083.8329856,4345359104.0,-9.4609375,1.02734375,2.45703125,0.0,0.08203125,-0.0546875,18.9375,-10.3125,-32.125,18.9375,-10.3125,-32.125,0.06496511260661603,-0.5973737488156329,0.10900168589963842,0.7918603228101552,19.8957659104631,73.78810669275798,-174.37964942639098,0.5181884765625,0.49853515625,0.34881591796875,-0.60107421875,20.555894373505854,73.90803558887801,-82.940338663179,1.193149212227183,,,,3,0,3,3
1788939083.8329856,4345362734.0,-9.5,1.02734375,2.45703125,0.005859375,0.0859375,-0.06640625,18.9375,-10.3125,-32.125,18.9375,-10.3125,-32.125,0.06504567280121372,-0.5975414357766968,0.10910562955196296,0.7917128611938996,19.929744628547994,73.81283881117918,-174.36044847814745,0.5181884765625,0.49853515625,0.34881591796875,-0.60107421875,20.555894373505854,73.90803558887801,-82.940338663179,1.2060693887021166,,,,3,0,3,3
1788939083.8329856,4345366593.0,-9.5390625,0.98828125,2.49609375,0.0,0.078125,-0.06640625,20.125,-9.6875,-30.875,20.125,-9.6875,-30.875,0.06512694882433714,-0.5977108060785985,0.1092038577556845,0.791564773271891,19.961935553720764,73.83786767395486,-174.34261765299675,0.51776123046875,0.4986572265625,0.34912109375,-0.60107421875,20.475255946922516,73.9421163406699,-83.00498803688933,1.6927675573041188,,,,3,0,3,3
1788939083.8504684,4345371200.0,-9.58203125,1.02734375,2.53125,-0.01171875,0.078125,-0.072265625,20.125,-9.6875,-30.875,20.125,-9.6875,-30.875,0.0652068052809928,-0.5979006863766787,0.10930347452582864,0.7914010312300108,19.997286793678903,73.86572724516864,-174.32157357628458,0.51776123046875,0.4986572265625,0.34912109375,-0.60107421875,20.475255946922516,73.9421163406699,-83.00498803688933,1.7015529943842014,,,,3,0,3,3
1788939083.8524215,4345374776.0,-9.6171875,0.98828125,2.5703125,-0.01171875,0.078125,-0.072265625,20.125,-9.6875,-30.875,20.125,-9.6875,-30.875,0.06528130770020778,-0.59804019669958,0.10938579394094756,0.7912780940228201,20.022629091364163,73.88652530319688,-174.30879588722792,0.51776123046875,0.4986572265625,0.34912109375,-0.60107421875,20.475255946922516,73.9421163406699,-83.00498803688933,1.7100244129233564,,,,3,0,3,3
1788939083.8524215,4345378635.0,-9.6171875,0.98828125,2.45703125,-0.021484375,0.080078125,-0.078125,20.6875,-10.75,-31.25,20.6875,-10.75,-31.25,0.06536302169624907,-0.5982152086472793,0.10944070562977563,0.7911314501959106,20.041188513212607,73.91267566099475,-174.30104012904008,0.51739501953125,0.498779296875,0.34954833984375,-0.60107421875,20.389731901271933,74.01126954461269,-83.10419885207207,1.5500171372755733,,,,3,0,3,3
1788939083.8627443,4345382065.0,-9.578125,0.953125,2.49609375,-0.033203125,0.078125,-0.08203125,20.6875,-10.75,-31.25,20.6875,-10.75,-31.25,0.06543593078598339,-0.5983621545171713,0.109475105383675,0.7910095273161849,20.05189588428289,73.93482692699725,-174.29878967893282,0.51739501953125,0.498779296875,0.34954833984375,-0.60107421875,20.389731901271933,74.01126954461269,-83.10419885207207,1.5560676839811793,,,,3,0,3,3
1788939083.8645716,4345390601.0,-9.5390625,0.953125,2.49609375,-0.03125,0.078125,-0.08984375,20.75,-8.3125,-30.625,20.75,-8.3125,-30.625,0.06556526092345115,-0.5989254591584064,0.10900881733770842,0.7906368121170213,19.9288022561909,74.02032500155296,-174.39258054874057,0.51708984375,0.498779296875,0.35003662109375,-0.60107421875,20.264949815179747,74.07204234716366,-83.22443153472696,1.4244340271223912,,,,3,0,3,3
1788939083.8645716,4345394607.0,-9.50390625,0.953125,2.53125,-0.03125,0.08203125,-0.091796875,20.75,-8.3125,-30.625,20.75,-8.3125,-30.625,0.06556114182906353,-0.5991672450932322,0.10873052066924029,0.7904922662268442,19.863671553904318,74.05610441719189,-174.43379270619096,0.51708984375,0.498779296875,0.35003662109375,-0.60107421875,20.264949815179747,74.07204234716366,-83.22443153472696,1.40268482599497,,,,3,0,3,3
1788939083.8645716,4345398467.0,-9.46484375,0.953125,2.53125,-0.03125,0.072265625,-0.09765625,20.5,-9.625,-30.125,20.5,-9.625,-30.125,0.0656594426552046,-0.5993032221153057,0.10876562371766632,0.790376191854061,19.867179974037374,74.07735913570606,-174.4409115059251,0.51666259765625,0.498779296875,0.35052490234375,-0.60113525390625,20.106987407969836,74.12774342483254,-83.37420288783494,1.5274177459198504,,,,3,0,3,3
1788939083.8828633,4345402573.0,-9.4609375,0.98828125,2.45703125,-0.033203125,0.076171875,-0.103515625,20.5,-9.625,-30.125,20.5,-9.625,-30.125,0.06575754551557306,-0.5994790269135516,0.10878094726898879,0.7902325904503118,19.868555428322228,74.10434134747159,-174.44841559554897,0.51666259765625,0.498779296875,0.35052490234375,-0.60113525390625,20.106987407969836,74.12774342483254,-83.37420288783494,1.5346826633377848,,,,3,0,3,3
1788939083.8804986,4345406403.0,-9.42578125,0.953125,2.45703125,-0.033203125,0.076171875,-0.103515625,20.5,-9.625,-30.125,20.5,-9.625,-30.125,0.06585741200179387,-0.5996415439387098,0.10879633932655826,0.7900988397766237,19.868033201554056,74.129506484315,-174.4580005642139,0.51666259765625,0.498779296875,0.35052490234375,-0.60113525390625,20.106987407969836,74.12774342483254,-83.37420288783494,1.542628899907112,,,,3,0,3,3
1788939083.8895264,4345409609.0,-9.42578125,0.953125,2.41796875,-0.041015625,0.078125,-0.111328125,20.125,-8.0625,-32.375,20.125,-8.0625,-32.375,0.06590332729440428,-0.5998280388029829,0.10851385056501896,0.7899922908186173,19.782783933164882,74.15878864017826,-174.5232315324567,0.51629638671875,0.498779296875,0.35107421875,-0.6011962890625,19.951583507668875,74.20573150690707,-83.54351919172261,1.1349095633506716,,,,3,0,3,3
1788939083.8895264,4345414415.0,-9.42578125,0.9140625,2.45703125,-0.044921875,0.068359375,-0.119140625,20.125,-8.0625,-32.375,20.125,-8.0625,-32.375,0.06601160440334493,-0.6000572171657584,0.10803889311766063,0.7898742949262831,19.621981388232307,74.1968839372016,-174.6531386520127,0.51629638671875,0.498779296875,0.35107421875,-0.6011962890625,19.951583507668875,74.20573150690707,-83.54351919172261,1.1018293528890521,,,,3,0,3,3
1788939083.8977919,4345417498.0,-9.42578125,0.875,2.37890625,-0.05078125,0.0703125,-0.1328125,23.125,-8.375,-36.125,23.125,-8.375,-36.125,0.06610463169717168,-0.6002202223123926,0.10771896336308358,0.7897863554958555,19.509376634652636,74.22420377894765,-174.7465630891254,0.515869140625,0.4986572265625,0.3516845703125,-0.60125732421875,19.731992344796247,74.25713971816535,-83.73127392357958,1.4106039933124046,,,,3,0,3,3
1788939083.9004977,4345421704.0,-9.42578125,0.875,2.45703125,-0.05078125,0.06640625,-0.12109375,23.125,-8.375,-36.125,23.125,-8.375,-36.125,0.06621236038754422,-0.6003988478396598,0.10728429099677639,0.7897007203681898,19.355692233158646,74.25478402810005,-174.8727665093899,0.515869140625,0.4986572265625,0.3516845703125,-0.60125732421875,19.731992344796247,74.25713971816535,-83.73127392357958,1.3881872260263197,,,,3,0,3,3
1788939083.9004977,4345425857.0,-9.421875,0.8359375,2.53125,-0.05078125,0.06640625,-0.12109375,23.125,-8.375,-36.125,23.125,-8.375,-36.125,0.06633272662141529,-0.6005409390624163,0.10685962462204275,0.7896401525471181,19.197857186672643,74.28038649180435,-175.0050765144338,0.515869140625,0.4986572265625,0.3516845703125,-0.60125732421875,19.731992344796247,74.25713971816535,-83.73127392357958,1.369540633260443,,,,3,0,3,3
1788939083.89853,4345429717.0,-9.4609375,0.8359375,2.41796875,-0.05859375,0.072265625,-0.12109375,22.4375,-9.375,-36.625,22.4375,-9.375,-36.625,0.06644070390657446,-0.6007713293531625,0.10648964598303944,0.7895057935126505,19.070652260452338,74.31771886770663,-175.11004484617857,0.5155029296875,0.49853515625,0.35235595703125,-0.601318359375,19.514438720854848,74.33094194402338,-83.93927084643467,1.1200369544194668,,,,3,0,3,3
1788939083.9124427,4345433546.0,-9.4609375,0.8359375,2.45703125,-0.060546875,0.064453125,-0.119140625,22.4375,-9.375,-36.625,22.4375,-9.375,-36.625,0.06654321846161342,-0.6009638937225574,0.10609380112944898,0.7894038914779289,18.93141255101857,74.34970167012061,-175.22456121502245,0.5155029296875,0.49853515625,0.35235595703125,-0.601318359375,19.514438720854848,74.33094194402338,-83.93927084643467,1.0980820728403013,,,,3,0,3,3
1788939083.9146917,4345437606.0,-9.5390625,0.8359375,2.37890625,-0.05859375,0.072265625,-0.11328125,22.4375,-9.375,-36.625,22.4375,-9.375,-36.625,0.0666371023456155,-0.6012247368317684,0.10576537469221277,0.7892414066233262,18.824033798355956,74.3906586823785,-175.3119126105533,0.51519775390625,0.49835205078125,0.35296630859375,-0.60137939453125,19.29494139532566,74.38501642458618,-84.134917745515,1.0579832282049466,,,,3,0,3,3
1788939083.9126952,4345440782.0,-9.50390625,0.796875,2.37890625,-0.05859375,0.072265625,-0.11328125,22.4375,-9.375,-36.625,22.4375,-9.375,-36.625,0.06672460328700573,-0.601423704211865,0.10549401920238688,0.7891187282283935,18.730750697612372,74.4223748127699,-175.38950609563904,0.51519775390625,0.49835205078125,0.35296630859375,-0.60137939453125,19.29494139532566,74.38501642458618,-84.134917745515,1.044499154550085,,,,3,0,3,3
1788939083.9146917,4345445389.0,-9.54296875,0.68359375,2.53125,-0.0546875,0.05859375,-0.109375,22.4375,-9.375,-36.625,22.4375,-9.375,-36.625,0.06691820318729859,-0.6015780881945949,0.1050409599718738,0.7890450903557457,18.543959085244524,74.45126139827623,-175.554428336076,0.51519775390625,0.49835205078125,0.35296630859375,-0.60137939453125,19.29494139532566,74.38501642458618,-84.134917745515,1.0301239229783654,,,,3,0,3,3
1788939083.9299712,4345448948.0,-9.58203125,0.796875,2.33984375,-0.041015625,0.05859375,-0.103515625,22.875,-8.4375,-33.75,22.875,-8.4375,-33.75,0.06701633170693173,-0.6017808909238985,0.10477838623328485,0.7889170174243513,18.450616430853536,74.48363777478409,-175.63367483039352,0.514892578125,0.49822998046875,0.35357666015625,-0.60137939453125,19.104007608417696,74.44179656673245,-84.29873979180162,1.0664910094417681,,,,3,0,2,3
1788939083.9299712,4345452778.0,-9.66015625,0.68359375,2.1484375,-0.021484375,0.056640625,-0.107421875,22.875,-8.4375,-33.75,22.875,-8.4375,-33.75,0.06716677852845832,-0.6020003977804564,0.10455558449573066,0.7887662991564975,18.359305707060138,74.51933388982546,-175.71842383885235,0.514892578125,0.49822998046875,0.35357666015625,-0.60137939453125,19.104007608417696,74.44179656673245,-84.29873979180162,1.066363010071946,,,,3,0,2,3
1788939083.9299712,4345456937.0,-9.5390625,0.72265625,2.3046875,-0.0078125,0.041015625,-0.095703125,22.875,-8.4375,-33.75,22.875,-8.4375,-33.75,0.06733539929398297,-0.6021981320848369,0.1043045689914147,0.7886342058286391,18.251111568295855,74.55248974053421,-175.81927356614753,0.5145263671875,0.49810791015625,0.35400390625,-0.60150146484375,18.90862028390291,74.47504413588797,-84.47623832965029,1.3290795187972773,,,,3,0,2,3
1788939083.9260361,4345461290.0,-9.50390625,0.796875,2.33984375,-0.0078125,0.041015625,-0.095703125,22.875,-8.4375,-33.75,22.875,-8.4375,-33.75,0.06747917319543549,-0.6024090657821095,0.1040471682365103,0.788494810021188,18.14784113505859,74.5869462953727,-175.9126065903851,0.5145263671875,0.49810791015625,0.35400390625,-0.60150146484375,18.90862028390291,74.47504413588797,-84.47623832965029,1.3270078129756273,,,,3,0,2,3
1788939083.9299712,4345464920.0,-9.5390625,0.796875,2.3046875,-0.01953125,0.03125,-0.091796875,22.875,-8.4375,-33.75,22.875,-8.4375,-33.75,0.06757999620924383,-0.602577061773932,0.10384255292968347,0.7883847746736992,18.068858821846952,74.61405566186144,-175.98258616102865,0.5145263671875,0.49810791015625,0.35400390625,-0.60150146484375,18.90862028390291,74.47504413588797,-84.47623832965029,1.325211566852736,,,,3,0,2,3
1788939083.9474924,4345468979.0,-9.54296875,0.8359375,2.3046875,-0.02734375,0.025390625,-0.083984375,20.25,-8.125,-29.625,20.25,-8.125,-29.625,0.06766246606193467,-0.6027391834434708,0.1037733337605698,0.7882628766017926,18.0405552732123,74.63922177018044,-176.01156271212304,0.51422119140625,0.498046875,0.3543701171875,-0.60162353515625,18.754730604975773,74.51978804722914,-84.63821457641438,1.1516336116148618,,,,3,0,3,3
1788939083.9474924,4345472885.0,-9.5,0.68359375,2.37890625,-0.025390625,0.021484375,-0.087890625,20.25,-8.125,-29.625,20.25,-8.125,-29.625,0.06784696633030297,-0.602894793431259,0.10361066840417557,0.7881494062714849,17.953359048661508,74.6662216091103,-176.10010930618466,0.51422119140625,0.498046875,0.3543701171875,-0.60162353515625,18.754730604975773,74.51978804722914,-84.63821457641438,1.1610021974137887,,,,3,0,3,3
1788939083.937799,4345475968.0,-9.4609375,0.64453125,2.41796875,-0.017578125,0.015625,-0.080078125,20.25,-8.125,-29.625,20.25,-8.125,-29.625,0.06803125880106978,-0.6029886723920549,0.10346293384934802,0.7880811063032118,17.86494394761307,74.68436739305554,-176.19123501523424,0.513916015625,0.49786376953125,0.35467529296875,-0.601806640625,18.5580646950434,74.53254033208763,-84.81810115342704,1.455949610002079,,,,3,0,3,3
1788939083.9397378,4345480045.0,-9.5,0.68359375,2.33984375,-0.017578125,0.015625,-0.080078125,20.25,-8.125,-29.625,20.25,-8.125,-29.625,0.06819933489905546,-0.6031431548983526,0.1033352571056644,0.7879651071319683,17.793412656409487,74.71062024736588,-176.26565938572327,0.513916015625,0.49786376953125,0.35467529296875,-0.601806640625,18.5580646950434,74.53254033208763,-84.81810115342704,1.4642227522106042,,,,3,0,3,3
1788939083.9474924,4345484451.0,-9.5,0.64453125,2.33984375,-0.013671875,0.01953125,-0.0703125,20.25,-8.125,-29.625,20.25,-8.125,-29.625,0.06838712110646544,-0.6033112867645488,0.10319243170127018,0.7878388255023058,17.712703144816203,74.73929824468865,-176.34959821095285,0.513916015625,0.49786376953125,0.35467529296875,-0.601806640625,18.5580646950434,74.53254033208763,-84.81810115342704,1.4742041558203165,,,,3,0,3,3
1788939083.9658272,4345488310.0,-9.5,0.68359375,2.37890625,-0.01171875,0.0078125,-0.064453125,19.8125,-8.125,-30.0625,19.8125,-8.125,-30.0625,0.06855013427051843,-0.6034384101797412,0.10306996816564383,0.7877433248676712,17.641079209161532,74.76149593372453,-176.42419571123085,0.513671875,0.497802734375,0.35491943359375,-0.60198974609375,18.424541559874232,74.57265287784156,-84.98098479772321,1.038965583095253,,,,3,0,3,3
1788939083.9658272,4345492217.0,-9.46484375,0.72265625,2.49609375,-0.013671875,0.0,-0.05078125,19.8125,-8.125,-30.0625,19.8125,-8.125,-30.0625,0.06875371680362342,-0.6033714368201704,0.10297940064653317,0.7877887271964046,17.551134281772562,74.75687221328842,-176.5235260904307,0.513671875,0.497802734375,0.35491943359375,-0.60198974609375,18.424541559874232,74.57265287784156,-84.98098479772321,1.0545745607858596,,,,3,0,3,3
1788939083.963874,4345496246.0,-9.4609375,0.68359375,2.49609375,-0.013671875,0.0,-0.05078125,19.8125,-8.125,-30.0625,19.8125,-8.125,-30.0625,0.06898064173035515,-0.6033361486117091,0.10282220339113743,0.7878164490124903,17.43511610216686,74.75750462017021,-176.64527739062294,0.513671875,0.497802734375,0.35491943359375,-0.60198974609375,18.424541559874232,74.57265287784156,-84.98098479772321,1.069215617031732,,,,3,0,3,3
1788939083.9790356,4345500429.0,-9.42578125,0.64453125,2.5703125,-0.0078125,-0.00390625,-0.044921875,20.4375,-8.6875,-30.3125,20.4375,-8.6875,-30.3125,0.06916646245673462,-0.6032426627455537,0.10282826689565153,0.7878709525310041,17.3809648524754,74.74824738314453,-176.7153877925453,0.5135498046875,0.4976806640625,0.35504150390625,-0.60211181640625,18.321591238427317,74.57550957250798,-85.08018530924062,1.1594895683268345,,,,3,0,3,3
1788939083.980426,4345504059.0,-9.46484375,0.72265625,2.37890625,-0.00390625,0.005859375,-0.0390625,20.4375,-8.6875,-30.3125,20.4375,-8.6875,-30.3125,0.069249766695447,-0.6033164062376636,0.10290545111137138,0.7877970880300724,17.393725609416993,74.76020842505076,-176.7156490950479,0.5135498046875,0.4976806640625,0.35504150390625,-0.60211181640625,18.321591238427317,74.57550957250798,-85.08018530924062,1.1748609341639273,,,,3,0,3,3
1788939083.986964,4345507342.0,-9.46484375,0.76171875,2.33984375,0.005859375,0.0,-0.03125,20.5625,-8.9375,-31.75,20.5625,-8.9375,-31.75,0.06930446289642987,-0.6033833216912979,0.10298237600174255,0.7877309748641657,17.41304633517191,74.77058032559079,-176.70699879617186,0.51336669921875,0.49761962890625,0.35516357421875,-0.60223388671875,18.227165244939883,74.58484075886396,-85.17736625303988,1.2534853391516045,,,,3,0,3,3
1788939083.9896038,4345511448.0,-9.46484375,0.76171875,2.37890625,0.01171875,-0.01171875,-0.0234375,20.5625,-8.9375,-31.75,20.5625,-8.9375,-31.75,0.06937476235013369,-0.6034309497864716,0.10311804217173476,0.7876705533199317,17.447075296296653,74.77830761423203,-176.68980812532368,0.51336669921875,0.49761962890625,0.35516357421875,-0.60223388671875,18.227165244939883,74.58484075886396,-85.17736625303988,1.2701360102272223,,,,3,0,3,3
1788939083.9948242,4345515701.0,-9.421875,0.796875,2.49609375,0.01171875,-0.01171875,-0.0234375,20.5625,-8.9375,-31.75,20.5625,-8.9375,-31.75,0.06942898725167632,-0.6033561030051935,0.1033073186294824,0.7876983093882958,17.49214790964754,74.76806535845924,-176.66496408203864,0.51336669921875,0.49761962890625,0.35516357421875,-0.60223388671875,18.227165244939883,74.58484075886396,-85.17736625303988,1.286884095468624,,,,3,0,3,3
1788939083.99698,4345519560.0,-9.34375,0.796875,2.53125,-0.00390625,-0.01171875,-0.01953125,24.0625,-8.0,-36.3125,24.0625,-8.0,-36.3125,0.06943666928680879,-0.603307433217876,0.10311460761224242,0.7877601587281409,17.418245424058213,74.76213008437944,-176.7237229332418,0.51324462890625,0.49755859375,0.35516357421875,-0.60235595703125,18.163527773011772,74.57649027604566,-85.24092788183279,1.4492155441067425,,,,3,0,3,3
1788939083.99698,4345523090.0,-9.34765625,0.796875,2.41796875,-0.0078125,-0.009765625,-0.017578125,24.0625,-8.0,-36.3125,24.0625,-8.0,-36.3125,0.06942831648338371,-0.603306749754653,0.10291317321758653,0.7877877590754039,17.350004384330386,74.76268229372035,-176.7746734062077,0.51324462890625,0.49755859375,0.35516357421875,-0.60235595703125,18.163527773011772,74.57649027604566,-85.24092788183279,1.4369556599074407,,,,3,0,3,3
1788939083.994723,4345527250.0,-9.34765625,0.796875,2.33984375,-0.00390625,-0.009765625,-0.017578125,24.0625,-8.0,-36.3125,24.0625,-8.0,-36.3125,0.06941833297293988,-0.6033459524183739,0.10268555422707615,0.7877883178244657,17.276812328425375,74.76895869296924,-176.82818929652234,0.51324462890625,0.49749755859375,0.35516357421875,-0.6024169921875,18.133666642115717,74.57373290452152,-85.2744045178342,1.362930909361456,,,,3,0,3,3
1788939083.99698,4345531603.0,-9.34375,0.796875,2.3046875,-0.00390625,-0.009765625,-0.017578125,24.0625,-8.0,-36.3125,24.0625,-8.0,-36.3125,0.06940551325751858,-0.603404293812781,0.1024573173522281,0.7877744798219504,17.205882268347946,74.77788278099597,-176.87911571383694,0.51324462890625,0.49749755859375,0.35516357421875,-0.6024169921875,18.133666642115717,74.57373290452152,-85.2744045178342,1.3496148747877883,,,,3,0,3,3
1788939084.0128498,4345535132.0,-9.34765625,0.796875,2.33984375,0.005859375,-0.017578125,-0.005859375,24.0625,-8.0,-36.3125,24.0625,-8.0,-36.3125,0.06938906583980689,-0.6034242012369979,0.10229033963476848,0.7877823794175483,17.153618136906235,74.78101574342553,-176.91621956186074,0.51324462890625,0.49749755859375,0.35516357421875,-0.6024169921875,18.133666642115717,74.57373290452152,-85.2744045178342,1.3391216163642594,,,,3,0,3,3
1788939084.0181875,4345538792.0,-9.38671875,0.796875,2.37890625,0.001953125,-0.021484375,-0.00390625,22.9375,-9.1875,-35.5,22.9375,-9.1875,-35.5,0.06932998185969139,-0.6034855540947611,0.10232410019934127,0.7877361983130325,17.186275280347363,74.78833359787856,-176.88135597320783,0.51324462890625,0.4974365234375,0.35516357421875,-0.6025390625,18.09494831676874,74.58405545531625,-85.34053838184909,0.8014066350157574,,,,3,0,3,3
1788939084.0181875,4345543398.0,-9.3828125,0.8359375,2.41796875,-0.005859375,-0.025390625,0.0,22.9375,-9.1875,-35.5,22.9375,-9.1875,-35.5,0.06915065054212687,-0.6034591207048362,0.10244599960790121,0.7877563673700673,17.272177884888052,74.78022484263862,-176.79085644234377,0.51324462890625,0.4974365234375,0.35516357421875,-0.6025390625,18.09494831676874,74.58405545531625,-85.34053838184909,0.7849938711927099,,,,3,0,3,3
1788939084.0284271,4345546581.0,-9.34375,0.8359375,2.41796875,-0.0078125,-0.02734375,0.00390625,22.9375,-9.1875,-35.5,22.9375,-9.1875,-35.5,0.06901345340216561,-0.6034208428974088,0.1025288443660868,0.7877869418056144,17.3324771353144,74.77147881648052,-176.7262244319779,0.5133056640625,0.497314453125,0.3551025390625,-0.6025390625,18.074756910555326,74.54822834745744,-85.32580561691901,1.3984616276449653,,,,3,0,3,3
1788939084.0303802,4345551134.0,-9.34375,0.8359375,2.41796875,-0.0078125,-0.02734375,0.00390625,22.9375,-9.1875,-35.5,22.9375,-9.1875,-35.5,0.06881329482515454,-0.6033690243388709,0.10264146559531002,0.7878294742291077,17.417835630561314,74.7592982769415,-176.63385641099512,0.5133056640625,0.497314453125,0.3551025390625,-0.6025390625,18.074756910555326,74.54822834745744,-85.32580561691901,1.3871544822307262,,,,3,0,3,3
1788939084.0303802,4345554764.0,-9.34375,0.875,2.33984375,-0.009765625,-0.02734375,0.005859375,22.9375,-9.1875,-35.5,22.9375,-9.1875,-35.5,0.06870583509923082,-0.6033973233502015,0.10271567686951129,0.787807507023364,17.473823652857916,74.76065350007191,-176.5751074123576,0.5133056640625,0.497314453125,0.3551025390625,-0.6025390625,18.074756910555326,74.54822834745744,-85.32580561691901,1.3830241328742627,,,,3,0,3,3
1788939084.0303802,4345559023.0,-9.3828125,0.875,2.41796875,-0.01171875,-0.033203125,0.00390625,20.375,-7.8125,-30.625,20.375,-7.8125,-30.625,0.06849167757986988,-0.6033538341262277,0.10276486096285904,0.7878530474008207,17.541261669108597,74.74957858817312,-176.49426331656397,0.51336669921875,0.49725341796875,0.35504150390625,-0.60260009765625,18.0666509457517,74.54131127893865,-85.34296274216567,1.2054431305698838,,,,3,0,3,3
1788939084.0303802,4345562929.0,-9.42578125,0.875,2.41796875,-0.017578125,-0.033203125,0.0,20.375,-7.8125,-30.625,20.375,-7.8125,-30.625,0.06830119239375873,-0.6033416713502666,0.10278505452471363,0.7878762639502533,17.595544316801426,74.74358050037655,-176.4260528860079,0.51336669921875,0.49725341796875,0.35504150390625,-0.60260009765625,18.0666509457517,74.54131127893865,-85.34296274216567,1.1890498601603237,,,,3,0,3,3
1788939084.0450687,4345566789.0,-9.5,0.8359375,2.37890625,-0.033203125,-0.0390625,0.001953125,20.375,-7.8125,-30.625,20.375,-7.8125,-30.625,0.0681975125546319,-0.6033932685888591,0.1027144004482701,0.787854945179356,17.60232140095389,74.74894367283024,-176.40482818684643,0.513427734375,0.4970703125,0.35498046875,-0.60272216796875,18.007977846947675,74.51582524667583,-85.39417681646411,1.2653648538250373,,,,3,0,3,3
1788939084.0470219,4345569889.0,-9.50390625,0.796875,2.45703125,-0.033203125,-0.0390625,0.001953125,20.375,-7.8125,-30.625,20.375,-7.8125,-30.625,0.06813009835161306,-0.6033768007565896,0.1025245091912989,0.7878981222356259,17.551651784828362,74.74598867315537,-176.4343533522957,0.513427734375,0.4970703125,0.35498046875,-0.60272216796875,18.007977846947675,74.51582524667583,-85.39417681646411,1.2470671448531323,,,,3,0,3,3
1788939084.0470219,4345574295.0,-9.54296875,0.796875,2.37890625,-0.037109375,-0.041015625,0.0078125,20.375,-7.8125,-30.625,20.375,-7.8125,-30.625,0.0680478843174871,-0.6034379995582323,0.10240522958331814,0.7878738700344494,17.53694688242878,74.75341128411463,-176.43234075234983,0.513427734375,0.4970703125,0.35498046875,-0.60272216796875,18.007977846947675,74.51582524667583,-85.39417681646411,1.2339349927327226,,,,3,0,3,3
1788939084.0470219,4345577954.0,-9.54296875,0.72265625,2.49609375,-0.04296875,-0.037109375,0.017578125,20.875,-5.6875,-28.9375,20.875,-5.6875,-28.9375,0.06798865066837158,-0.6033911013016939,0.1021803042014088,0.787944101877494,17.469029803304576,74.74647091353424,-176.47696778824223,0.51361083984375,0.49688720703125,0.35498046875,-0.60272216796875,17.982616451024292,74.49636623057162,-85.40021537630983,1.2034602537535504,,,,3,0,3,3
1788939084.0618708,4345582060.0,-9.58203125,0.76171875,2.45703125,-0.02734375,-0.044921875,0.0234375,20.875,-5.6875,-28.9375,20.875,-5.6875,-28.9375,0.0679242755138439,-0.6033361331126891,0.10195656326327653,0.7880207246539195,17.402109858847105,74.73825934541321,-176.52029283420018,0.51361083984375,0.49688720703125,0.35498046875,-0.60272216796875,17.982616451024292,74.49636623057162,-85.40021537630983,1.18225604725503,,,,3,0,3,3
1788939084.0617826,4345585890.0,-9.62109375,0.796875,2.49609375,-0.02734375,-0.044921875,0.0234375,20.875,-5.6875,-28.9375,20.875,-5.6875,-28.9375,0.06785674564143128,-0.6032764077081779,0.10174961905534213,0.7880990121778881,17.3414484124885,74.72922296682655,-176.55849660574262,0.51361083984375,0.49688720703125,0.35498046875,-0.60272216796875,17.982616451024292,74.49636623057162,-85.40021537630983,1.1620036423359255,,,,3,0,3,3
1788939084.0637357,4345590273.0,-9.58203125,0.796875,2.49609375,-0.029296875,-0.048828125,0.025390625,21.125,-8.25,-30.1875,21.125,-8.25,-30.1875,0.06777482221567975,-0.6031864370223601,0.10193937576383687,0.7881504040059755,17.419648102667864,74.71383661071263,-176.48942966895896,0.5137939453125,0.49676513671875,0.3548583984375,-0.602783203125,17.98778084758288,74.47881013119759,-85.40307192771205,0.8241583819103195,,,,3,0,3,3
1788939084.0637357,4345593903.0,-9.578125,0.796875,2.53125,-0.025390625,-0.0546875,0.0234375,21.125,-8.25,-30.1875,21.125,-8.25,-30.1875,0.06772152833332615,-0.6030568584340076,0.10209388769798386,0.7882341391938155,17.474361114108362,74.69359523895913,-176.44338484508904,0.5137939453125,0.49676513671875,0.3548583984375,-0.602783203125,17.98778084758288,74.47881013119759,-85.40307192771205,0.8268056940993764,,,,3,0,3,3
1788939084.0637357,4345598162.0,-9.578125,0.8359375,2.49609375,-0.013671875,-0.05859375,0.021484375,19.125,-10.1875,-31.0625,19.125,-10.1875,-31.0625,0.06769377035290956,-0.6029546686239012,0.10229767171086225,0.7882882768394985,17.542255049850443,74.67756554432052,-176.3902524602058,0.51397705078125,0.49658203125,0.354736328125,-0.60284423828125,17.972176865060078,74.4455165037323,-85.40667443297565,0.910329380305005,,,,3,0,3,3
1788939084.0809174,4345601292.0,-9.58203125,0.796875,2.45703125,-0.00390625,-0.05078125,0.01953125,19.125,-10.1875,-31.0625,19.125,-10.1875,-31.0625,0.06769062224315583,-0.6028986353555127,0.10245387819198742,0.7883111175102229,17.591811372905752,74.66883081314681,-176.3534468145946,0.51397705078125,0.49658203125,0.354736328125,-0.60284423828125,17.972176865060078,74.4455165037323,-85.40667443297565,0.9217448704157636,,,,3,0,3,3
1788939084.0809174,4345605245.0,-9.50390625,0.796875,2.49609375,-0.00390625,-0.05078125,0.01953125,19.125,-10.1875,-31.0625,19.125,-10.1875,-31.0625,0.06768767114773815,-0.6028118384641321,0.10265687815493954,0.7883513378878549,17.65448524188806,74.65551382216641,-176.30747034004665,0.51397705078125,0.49658203125,0.354736328125,-0.60284423828125,17.972176865060078,74.4455165037323,-85.40667443297565,0.9366683485395747,,,,3,0,3,3
1788939084.0809174,4345609204.0,-9.5,0.796875,2.53125,0.005859375,-0.064453125,0.015625,20.5625,-10.4375,-32.25,20.5625,-10.4375,-32.25,0.06770390665877925,-0.6026919534184192,0.10287089560260117,0.7884137043112254,17.71279630636631,74.63786990103182,-176.26841725501828,0.51409912109375,0.49639892578125,0.3544921875,-0.60296630859375,17.95403709753413,74.38920858006468,-85.40665377594934,1.4136094105029227,,,,3,0,3,3
1788939084.0897892,4345612934.0,-9.421875,0.796875,2.49609375,0.0,-0.0703125,0.017578125,20.5625,-10.4375,-32.25,20.5625,-10.4375,-32.25,0.06770954462251703,-0.6025755025387062,0.10306487951938101,0.7884768937114723,17.767073645870052,74.62056838612847,-176.2308704297699,0.51409912109375,0.49639892578125,0.3544921875,-0.60296630859375,17.95403709753413,74.38920858006468,-85.40665377594934,1.4234370214815761,,,,3,0,3,3
1788939084.0970712,4345617293.0,-9.38671875,0.76171875,2.5703125,0.0078125,-0.06640625,0.017578125,20.5625,-10.4375,-32.25,20.5625,-10.4375,-32.25,0.06773984196602144,-0.602415434894963,0.10330250110090124,0.7885655019572119,17.825830702439905,74.59742095113634,-176.19456875869147,0.5142822265625,0.49627685546875,0.35430908203125,-0.60308837890625,17.959680523736555,74.37121370113377,-85.42450940861738,0.9860975274558308,,,,3,0,3,3
1788939084.095118,4345621646.0,-9.34375,0.796875,2.53125,0.0078125,-0.06640625,0.017578125,20.5625,-10.4375,-32.25,20.5625,-10.4375,-32.25,0.06775743388695792,-0.6022662865367435,0.10354338632136731,0.788646319590347,17.88984697566045,74.5755185460591,-176.15221157694026,0.5142822265625,0.49627685546875,0.35430908203125,-0.60308837890625,17.959680523736555,74.37121370113377,-85.42450940861738,1.0058775951869239,,,,3,0,3,3
1788939084.0970712,4345625276.0,-9.38671875,0.796875,2.5703125,0.017578125,-0.068359375,0.02734375,20.5625,-10.4375,-32.25,20.5625,-10.4375,-32.25,0.06777175476913189,-0.6021282880946812,0.10376713789086385,0.7887210501981163,17.94974127326426,74.55520092609824,-176.11227086626297,0.5142822265625,0.49627685546875,0.35430908203125,-0.60308837890625,17.959680523736555,74.37121370113377,-85.42450940861738,1.0247159775155184,,,,3,0,3,3
1788939084.0970712,4345629335.0,-9.3828125,0.8359375,2.49609375,0.02734375,-0.064453125,0.0234375,23.1875,-10.75,-36.375,23.1875,-10.75,-36.375,0.06778347390440063,-0.6019933662749439,0.10403165469032527,0.7887881860479438,18.024508119044597,74.53505256988356,-176.06060102421523,0.514404296875,0.49615478515625,0.35400390625,-0.603271484375,17.962778959832384,74.33021804966356,-85.43877118179465,0.9794358842569418,,,,3,0,2,3
1788939084.0970712,4345633642.0,-9.3828125,0.8359375,2.49609375,0.033203125,-0.06640625,0.02734375,23.1875,-10.75,-36.375,23.1875,-10.75,-36.375,0.06779907224970123,-0.6018462561204592,0.10432699725545404,0.7888600937045345,18.107532868952244,74.51310136100123,-176.00356534695294,0.514404296875,0.49615478515625,0.35400390625,-0.603271484375,17.962778959832384,74.33021804966356,-85.43877118179465,1.006886825302762,,,,3,0,2,3
1788939084.1116533,4345636425.0,-9.3828125,0.8359375,2.49609375,0.04296875,-0.056640625,0.025390625,23.1875,-10.75,-36.375,23.1875,-10.75,-36.375,0.0678194058557014,-0.6017621075295525,0.10452776316190573,0.7888959632672357,18.163039936345136,74.50063534966142,-175.96648679938815,0.5145263671875,0.49609375,0.3536376953125,-0.6033935546875,18.00432778807723,74.27876281931479,-85.4030398594541,1.280944691643835,,,,3,0,2,3
1788939084.1139102,4345640778.0,-9.3828125,0.875,2.49609375,0.04296875,-0.056640625,0.025390625,23.1875,-10.75,-36.375,23.1875,-10.75,-36.375,0.06783255690028689,-0.60162987287486,0.10484160776368012,0.7889540402143053,18.254229364829513,74.48061580121309,-175.90258103849462,0.5145263671875,0.49609375,0.3536376953125,-0.6033935546875,18.00432778807723,74.27876281931479,-85.4030398594541,1.3043874362470682,,,,3,0,2,3
1788939084.1139102,4345644607.0,-9.3828125,0.8359375,2.49609375,0.044921875,-0.0546875,0.025390625,23.1875,-10.75,-36.375,23.1875,-10.75,-36.375,0.06786589646528175,-0.6015183241338604,0.10512075752941887,0.7889990824865368,18.330431026706602,74.46414725793933,-175.85240985424656,0.5145263671875,0.49609375,0.3536376953125,-0.6033935546875,18.00432778807723,74.27876281931479,-85.4030398594541,1.327752018638152,,,,3,0,2,3
1788939084.1139102,4345648667.0,-9.34375,0.875,2.49609375,0.033203125,-0.068359375,0.021484375,25.0,-8.8125,-32.4375,25.0,-8.8125,-32.4375,0.06779235795976996,-0.6013161370433895,0.10532125550599765,0.7891327725244406,18.396750932188183,74.43282910592832,-175.79708507787902,0.51458740234375,0.49609375,0.35333251953125,-0.60357666015625,18.03628874527754,74.2599043611094,-85.41480485271715,0.9138647560035783,,,,3,0,2,3
1788939084.1300476,4345652573.0,-9.3828125,0.8359375,2.5703125,0.041015625,-0.068359375,0.021484375,25.0,-8.8125,-32.4375,25.0,-8.8125,-32.4375,0.0678180687655516,-0.6010891855101116,0.10539820300908456,0.7892931770984449,18.393593465345763,74.40094265664048,-175.8092465530421,0.51458740234375,0.49609375,0.35333251953125,-0.60357666015625,18.03628874527754,74.2599043611094,-85.41480485271715,0.9198434097828139,,,,3,0,2,3
1788939084.1280944,4345656632.0,-9.421875,0.875,2.53125,0.041015625,-0.068359375,0.0234375,25.0,-8.8125,-32.4375,25.0,-8.8125,-32.4375,0.0677648005049168,-0.6008685109465263,0.10558106857835177,0.7894413229134174,18.446688803158803,74.36757495745688,-175.76740280289957,0.5146484375,0.49603271484375,0.35296630859375,-0.603759765625,18.056842012214368,74.21227609273907,-85.4102825991258,1.1297474339596547,,,,3,0,2,3
1788939084.1300476,4345660509.0,-9.46484375,0.9140625,2.53125,0.041015625,-0.068359375,0.0234375,25.0,-8.8125,-32.4375,25.0,-8.8125,-32.4375,0.06767775943634798,-0.6006954718849105,0.1057977683958124,0.7895514569279867,18.524275672596666,74.33996927958263,-175.70097594269117,0.5146484375,0.49603271484375,0.35296630859375,-0.603759765625,18.056842012214368,74.21227609273907,-85.4102825991258,1.1398104993800613,,,,3,0,2,3
1788939084.1300476,4345664039.0,-9.4609375,0.9140625,2.49609375,0.02734375,-0.072265625,0.021484375,25.0,-8.8125,-32.4375,25.0,-8.8125,-32.4375,0.067580056336108,-0.6006016199765617,0.10597869595195618,0.7896069567015358,18.600206453642368,74.32347334611224,-175.63218834219933,0.5146484375,0.49603271484375,0.35296630859375,-0.603759765625,18.056842012214368,74.21227609273907,-85.4102825991258,1.147614512118079,,,,3,0,2,3
1788939084.1470816,4345667798.0,-9.4609375,0.953125,2.49609375,0.015625,-0.078125,0.01171875,20.4375,-7.75,-30.25,20.4375,-7.75,-30.25,0.06742094327221587,-0.6004944140638824,0.10593930844038207,0.7897073749266451,18.6147339506744,74.30488009578359,-175.60161843975263,0.5147705078125,0.49591064453125,0.3526611328125,-0.60394287109375,18.059920762699615,74.1715127303023,-85.42488641306282,1.0538041199706845,,,,3,0,3,3
1788939084.1470816,4345671904.0,-9.4609375,0.953125,2.49609375,0.01171875,-0.07421875,0.00390625,20.4375,-7.75,-30.25,20.4375,-7.75,-30.25,0.06725442088282904,-0.6003923691369206,0.10588065224300226,0.7898070229077908,18.625010439249774,74.28695320914385,-175.57308900934763,0.5147705078125,0.49591064453125,0.3526611328125,-0.60394287109375,18.059920762699615,74.1715127303023,-85.42488641306282,1.0298338856487332,,,,3,0,3,3
1788939084.1451285,4345675934.0,-9.421875,0.9140625,2.53125,0.01171875,-0.07421875,0.00390625,20.4375,-7.75,-30.25,20.4375,-7.75,-30.25,0.0671747880890438,-0.6002281589030323,0.10576306799841276,0.7899543521955122,18.587665325910102,74.2626021503221,-175.5945963545669,0.5147705078125,0.49591064453125,0.3526611328125,-0.60394287109375,18.059920762699615,74.1715127303023,-85.42488641306282,1.0064981346334385,,,,3,0,3,3
1788939084.1470816,4345680117.0,-9.5,0.9140625,2.5703125,0.0,-0.08203125,0.0,20.4375,-7.75,-30.25,20.4375,-7.75,-30.25,0.06710751011487233,-0.6000333004303555,0.10562014123252053,0.7901272088890874,18.53569592157387,74.23435527144271,-175.62972441080635,0.51483154296875,0.4957275390625,0.35235595703125,-0.60418701171875,18.02206374911216,74.11902051667589,-85.47084120788877,1.200766527403963,,,,3,0,3,3
1788939084.1628036,4345683746.0,-9.50390625,0.875,2.609375,-0.01171875,-0.08984375,0.005859375,20.4375,-7.75,-30.25,20.4375,-7.75,-30.25,0.06708237581300333,-0.5998436210243822,0.1054791428856473,0.7902921836812948,18.47481966383607,74.2077961242221,-175.67736323289438,0.51483154296875,0.4957275390625,0.35235595703125,-0.60418701171875,18.02206374911216,74.11902051667589,-85.47084120788877,1.1834887004146721,,,,3,0,3,3
1788939084.163574,4345688006.0,-9.50390625,0.875,2.53125,-0.025390625,-0.087890625,0.0078125,19.25,-7.625,-29.75,19.25,-7.625,-29.75,0.06699547351905562,-0.5997326146728301,0.10523294545768459,0.7904166145874897,18.401518342411034,74.1914828722854,-175.72348736580645,0.5150146484375,0.49542236328125,0.3521728515625,-0.60443115234375,17.94974188806805,74.08003204122973,-85.5542908971104,0.8174171608414259,,,,3,0,3,3
1788939084.163574,4345692112.0,-9.5,0.8359375,2.5703125,-0.03125,-0.087890625,0.015625,19.25,-7.625,-29.75,19.25,-7.625,-29.75,0.06695220196977225,-0.5995732346838673,0.10499915328539855,0.7905722716560911,18.31711018813091,74.16926515483883,-175.7854389444755,0.5150146484375,0.49542236328125,0.3521728515625,-0.60443115234375,17.94974188806805,74.08003204122973,-85.5542908971104,0.7790343234053564,,,,3,0,3,3
1788939084.163574,4345695589.0,-9.50390625,0.8359375,2.53125,-0.03125,-0.087890625,0.015625,19.25,-7.625,-29.75,19.25,-7.625,-29.75,0.06691014590046293,-0.5994964752372886,0.104794791024717,0.7906611539260873,18.250733208189647,74.1585616862237,-175.83168742427304,0.5150146484375,0.49542236328125,0.3521728515625,-0.60443115234375,17.94974188806805,74.08003204122973,-85.5542908971104,0.7460449015019983,,,,3,0,3,3
1788939084.1789062,4345699048.0,-9.50390625,0.796875,2.5703125,-0.03515625,-0.091796875,0.013671875,20.8125,-8.25,-30.25,20.8125,-8.25,-30.25,0.06704353597263968,-0.5993621380902168,0.10474208684847956,0.7907586780749453,18.187339145684877,74.14290374559319,-175.90200184062547,0.5152587890625,0.4951171875,0.35198974609375,-0.60455322265625,17.906858428281133,74.02481874543936,-85.57521394686954,1.0151807647847526,,,,3,0,3,3
1788939084.1805837,4345703754.0,-9.50390625,0.76171875,2.5703125,-0.02734375,-0.091796875,0.015625,20.8125,-8.25,-30.25,20.8125,-8.25,-30.25,0.0672073338705831,-0.5992109298391687,0.10459359634817701,0.7908790144125974,18.082819544731166,74.12601748278925,-176.00807407882346,0.5152587890625,0.4951171875,0.35198974609375,-0.60455322265625,17.906858428281133,74.02481874543936,-85.57521394686954,1.0133700652304471,,,,3,0,3,3
1788939084.1879227,4345707137.0,-9.54296875,0.76171875,2.5703125,-0.03515625,-0.08984375,0.021484375,20.8125,-8.25,-30.25,20.8125,-8.25,-30.25,0.06730059588888632,-0.5991354871510058,0.10450040058906528,0.7909405566198084,18.021533065309598,74.11792901126844,-176.06950542814732,0.5155029296875,0.49481201171875,0.35174560546875,-0.604736328125,17.86485780044957,73.9691986212356,-85.61078871499107,1.0324182211412898,,,,3,0,3,3
1788939084.1898901,4345711290.0,-9.578125,0.76171875,2.53125,-0.03515625,-0.08984375,0.021484375,20.8125,-8.25,-30.25,20.8125,-8.25,-30.25,0.06733625296324372,-0.5990943297141749,0.10443213786939817,0.7909777125312827,17.985949365670788,74.11325505318823,-176.10248184561704,0.5155029296875,0.49481201171875,0.35174560546875,-0.604736328125,17.86485780044957,73.9691986212356,-85.61078871499107,1.0285598513032674,,,,3,0,3,3
1788939084.1918578,4345714820.0,-9.5390625,0.76171875,2.53125,-0.015625,-0.091796875,0.0234375,20.8125,-8.25,-30.25,20.8125,-8.25,-30.25,0.06739102663365495,-0.5990516089738362,0.10440740339041014,0.7910086683674155,17.960250434682507,74.108569798589,-176.13073789060815,0.5155029296875,0.49481201171875,0.35174560546875,-0.604736328125,17.86485780044957,73.9691986212356,-85.61078871499107,1.030565565443674,,,,3,0,3,3
1788939084.1978874,4345718779.0,-9.5390625,0.72265625,2.53125,-0.00390625,-0.09375,0.025390625,23.4375,-7.875,-36.0,23.4375,-7.875,-36.0,0.06738219753459704,-0.5989285567391369,0.10422409402057549,0.7911267670881661,17.88894622976159,74.09189011998832,-176.18649058372657,0.5157470703125,0.4945068359375,0.35150146484375,-0.6048583984375,17.831599752633448,73.90119276797614,-85.61476188440857,1.4264906819768428,,,,3,0,3,3
1788939084.1978874,4345723085.0,-9.54296875,0.76171875,2.5703125,-0.001953125,-0.1015625,0.025390625,23.4375,-7.875,-36.0,23.4375,-7.875,-36.0,0.06736668746157377,-0.5987679326953939,0.10402683978864052,0.7912756212595757,17.811145290515576,74.0698100464227,-176.24713276109964,0.5157470703125,0.4945068359375,0.35150146484375,-0.6048583984375,17.831599752633448,73.90119276797614,-85.61476188440857,1.4100515956088298,,,,3,0,3,3
1788939084.1959343,4345727245.0,-9.54296875,0.76171875,2.5703125,0.005859375,-0.09765625,0.029296875,23.4375,-7.875,-36.0,23.4375,-7.875,-36.0,0.06735361483087836,-0.5986190720907467,0.10385429602924721,0.7914120180378211,17.742345235927196,74.04931433927831,-176.3009846534831,0.5159912109375,0.4942626953125,0.3511962890625,-0.60504150390625,17.819204604437278,73.84804329877356,-85.63276569707448,1.317944838639499,,,,3,0,3,3
1788939084.1978874,4345729845.0,-9.54296875,0.72265625,2.5703125,0.005859375,-0.09765625,0.029296875,23.4375,-7.875,-36.0,23.4375,-7.875,-36.0,0.06735170234869255,-0.5985275261623197,0.10374662134806908,0.7914955383169302,17.698113708378354,74.03684621260561,-176.33639716318228,0.5159912109375,0.4942626953125,0.3511962890625,-0.60504150390625,17.819204604437278,73.84804329877356,-85.63276569707448,1.3089296337908507,,,,3,0,3,3
1788939084.212747,4345734451.0,-9.5,0.76171875,2.609375,0.017578125,-0.103515625,0.029296875,23.4375,-7.875,-36.0,23.4375,-7.875,-36.0,0.06735389286022204,-0.5983315917271533,0.10357992775903171,0.7916653068205393,17.62348011058506,74.00999166207198,-176.39793288452552,0.5159912109375,0.4942626953125,0.3511962890625,-0.60504150390625,17.819204604437278,73.84804329877356,-85.63276569707448,1.2949191894511747,,,,3,0,3,3
1788939084.2138176,4345738710.0,-9.46484375,0.796875,2.5703125,0.01171875,-0.111328125,0.0390625,23.875,-8.75,-35.3125,23.875,-8.75,-35.3125,0.067336016418151,-0.5981580653634893,0.10342304589201233,0.7918184535055753,17.55924862243619,73.98580561143312,-176.4481750152256,0.5162353515625,0.4940185546875,0.35076904296875,-0.60528564453125,17.816681450145925,73.78147654725166,-85.64878972983774,1.248112064916658,,,,3,0,3,3
1788939084.2138176,4345742417.0,-9.421875,0.8359375,2.609375,0.021484375,-0.109375,0.041015625,23.875,-8.75,-35.3125,23.875,-8.75,-35.3125,0.06729465029106585,-0.5979544266371944,0.10332900702463475,0.7919880365349531,17.519037018443772,73.95656910987672,-176.4777290192297,0.5162353515625,0.4940185546875,0.35076904296875,-0.60528564453125,17.816681450145925,73.78147654725166,-85.64878972983774,1.2349727888597355,,,,3,0,3,3
1788939084.2118645,4345746446.0,-9.42578125,0.796875,2.6484375,0.021484375,-0.109375,0.041015625,23.875,-8.75,-35.3125,23.875,-8.75,-35.3125,0.06728563889206421,-0.5977202121994251,0.10323611815486662,0.7921776913265581,17.468803410555502,73.92371461142285,-176.52013029026122,0.5162353515625,0.4940185546875,0.35076904296875,-0.60528564453125,17.816681450145925,73.78147654725166,-85.64878972983774,1.2247746270798021,,,,3,0,3,3
1788939084.230325,4345750629.0,-9.42578125,0.796875,2.6484375,0.021484375,-0.11328125,0.041015625,23.125,-7.5625,-34.0,23.125,-7.5625,-34.0,0.06726673271783934,-0.5975026026291941,0.10311371193781747,0.7923593811719597,17.412818720659388,73.8931163395065,-176.56499462109568,0.51654052734375,0.49383544921875,0.350341796875,-0.60546875,17.854140693870583,73.726568741842,-85.6342534365454,0.8586334256902445,,,,3,0,3,3
1788939084.230325,4345754459.0,-9.421875,0.76171875,2.6875,0.017578125,-0.107421875,0.04296875,23.125,-7.5625,-34.0,23.125,-7.5625,-34.0,0.06725149879005136,-0.597303768408863,0.10300418877666014,0.7925248142799853,17.362120193417486,73.86518872804568,-176.60589169769116,0.51654052734375,0.49383544921875,0.350341796875,-0.60546875,17.854140693870583,73.726568741842,-85.6342534365454,0.8431639210425811,,,,3,0,3,3
1788939084.230325,4345758618.0,-9.38671875,0.76171875,2.6875,0.01953125,-0.111328125,0.048828125,19.5625,-9.5,-29.875,19.5625,-9.5,-29.875,0.06725773733170719,-0.5970711047461815,0.10328250447416358,0.7926633692279074,17.431981156788396,73.83128566702838,-176.56008287692595,0.51678466796875,0.49365234375,0.34991455078125,-0.60565185546875,17.87970736549994,73.66300419144359,-85.61885676884303,0.906419576733161,,,,3,0,3,3
1788939084.230325,4345762525.0,-9.38671875,0.76171875,2.6875,0.0234375,-0.109375,0.0546875,19.5625,-9.5,-29.875,19.5625,-9.5,-29.875,0.06726065819771519,-0.596855161619507,0.10355695644488754,0.7927899322511822,17.50263653314732,73.79968347257565,-176.51285107176454,0.51678466796875,0.49365234375,0.34991455078125,-0.60565185546875,17.87970736549994,73.66300419144359,-85.61885676884303,0.9247551043891717,,,,3,0,3,3
1788939084.2437406,4345765578.0,-9.38671875,0.796875,2.7265625,0.0234375,-0.109375,0.0546875,19.5625,-9.5,-29.875,19.5625,-9.5,-29.875,0.06725491021330707,-0.596676071561884,0.10376983511130046,0.7928973855415661,17.558135170754674,73.7733585291876,-176.47489430039903,0.51678466796875,0.49365234375,0.34991455078125,-0.60565185546875,17.87970736549994,73.66300419144359,-85.61885676884303,0.9390555932355558,,,,3,0,3,3
1788939084.24699,4345769760.0,-9.34765625,0.76171875,2.76171875,0.02734375,-0.107421875,0.052734375,19.875,-7.625,-29.625,19.875,-7.625,-29.625,0.06725676093763858,-0.5963883977797503,0.10376921306025963,0.7931137103358724,17.53144166183187,73.73283780736232,-176.50240101846663,0.51702880859375,0.49346923828125,0.349365234375,-0.60589599609375,17.91483773343419,73.58618172801242,-85.60201049720712,1.0334128924462278,,,,3,0,3,3
1788939084.24699,4345774067.0,-9.34765625,0.76171875,2.7265625,0.017578125,-0.107421875,0.05859375,19.875,-7.625,-29.625,19.875,-7.625,-29.625,0.06724243175324487,-0.5961014002071282,0.10374088418144892,0.793334358888018,17.499646942500824,73.69218952276782,-176.53139354578508,0.51702880859375,0.49346923828125,0.349365234375,-0.60589599609375,17.91483773343419,73.58618172801242,-85.60201049720712,1.025878767592281,,,,3,0,3,3
1788939084.24699,4345777450.0,-9.38671875,0.76171875,2.7265625,0.015625,-0.10546875,0.07421875,19.1875,-8.125,-30.125,19.1875,-8.125,-30.125,0.06723511851626882,-0.5958552235768301,0.10380348350452384,0.7935117063954604,17.49986530508408,73.6570581919096,-176.53635516154685,0.517333984375,0.4932861328125,0.348876953125,-0.6060791015625,17.960647561068075,73.51875272244524,-85.57218600022516,0.9178875628569013,,,,3,0,3,3
1788939084.2646835,4345781756.0,-9.38671875,0.796875,2.76171875,0.017578125,-0.09375,0.07421875,19.1875,-8.125,-30.125,19.1875,-8.125,-30.125,0.06718815607054415,-0.5955518556381645,0.10391991377823925,0.7937281590381574,17.521912376128057,73.61278059706713,-176.52082176717718,0.517333984375,0.4932861328125,0.348876953125,-0.6060791015625,17.960647561068075,73.51875272244524,-85.57218600022516,0.917850610927186,,,,3,0,3,3
1788939084.2637048,4345785132.0,-9.38671875,0.796875,2.76171875,0.017578125,-0.09375,0.07421875,19.1875,-8.125,-30.125,19.1875,-8.125,-30.125,0.06715442550024843,-0.5953145500136244,0.10400780978722161,0.7938975029442229,17.537354730434718,73.57823233517581,-176.51046068112646,0.517333984375,0.4932861328125,0.348876953125,-0.6060791015625,17.960647561068075,73.51875272244524,-85.57218600022516,0.9194230365580648,,,,3,0,3,3
1788939084.268056,4345789868.0,-9.3828125,0.8359375,2.76171875,0.025390625,-0.091796875,0.080078125,19.5625,-9.0625,-29.875,19.5625,-9.0625,-29.875,0.0670847853549641,-0.5950439033485432,0.10437145077190203,0.794058552579957,17.64810725841891,73.53698583458309,-176.42469516979207,0.51763916015625,0.4931640625,0.348388671875,-0.60614013671875,18.042020154334693,73.44211381138335,-85.48081278251878,1.3474211016625508,,,,3,0,3,3
1788939084.268056,4345793598.0,-9.31640625,0.875,2.76171875,0.0234375,-0.087890625,0.083984375,19.5625,-9.0625,-29.875,19.5625,-9.0625,-29.875,0.06700708605382878,-0.5948321487178497,0.1046577286825894,0.7941860771237949,17.740393642212435,73.50417752816192,-176.3502024158128,0.51763916015625,0.4931640625,0.348388671875,-0.60614013671875,18.042020154334693,73.44211381138335,-85.48081278251878,1.357435544749752,,,,3,0,3,3
1788939084.2772138,4345797557.0,-9.34375,0.875,2.7265625,0.037109375,-0.091796875,0.076171875,19.375,-10.25,-31.375,19.375,-10.25,-31.375,0.06696548192805704,-0.5946373442108571,0.10498860204437517,0.7942917892945701,17.84005220249794,73.47432043556644,-176.27494466316548,0.5179443359375,0.4931640625,0.34783935546875,-0.60626220703125,18.16263876711442,73.39473416188542,-85.40351655762518,0.8852502951887073,,,,3,0,3,3
1788939084.280953,4345801287.0,-9.31640625,0.875,2.7265625,0.037109375,-0.0859375,0.078125,19.375,-10.25,-31.375,19.375,-10.25,-31.375,0.06692314949148945,-0.594460329216432,0.10530291179315333,0.7943862447310593,17.935827510938015,73.4470037437363,-176.20210105109072,0.5179443359375,0.4931640625,0.34783935546875,-0.60626220703125,18.16263876711442,73.39473416188542,-85.40351655762518,0.9079520963877488,,,,3,0,3,3
1788939084.280953,4345804764.0,-9.34375,0.9140625,2.76171875,0.037109375,-0.0859375,0.078125,19.375,-10.25,-31.375,19.375,-10.25,-31.375,0.0668769345542506,-0.5942886604832145,0.10559494602313287,0.7944798115874718,18.02550079201568,73.42043741857881,-176.13319047217405,0.5179443359375,0.4931640625,0.34783935546875,-0.60626220703125,18.16263876711442,73.39473416188542,-85.40351655762518,0.9295870732806109,,,,3,0,3,3
1788939084.280953,4345809023.0,-9.31640625,0.9140625,2.7265625,0.03515625,-0.08203125,0.080078125,19.4375,-7.1875,-32.6875,19.4375,-7.1875,-32.6875,0.06676621806366272,-0.5940952683366403,0.10556173363096269,0.7946381595785069,18.022439200120257,73.39095388214294,-176.1249096635379,0.51824951171875,0.49310302734375,0.3472900390625,-0.60638427734375,18.263004790780393,73.33255818965576,-85.32774222262488,0.717140182205811,,,,3,0,3,3
1788939084.2903018,4345813129.0,-9.3828125,0.9140625,2.76171875,0.0234375,-0.08203125,0.06640625,19.4375,-7.1875,-32.6875,19.4375,-7.1875,-32.6875,0.06667121663394417,-0.5939106296200322,0.10549537691467285,0.7947929531308879,18.005855038978833,73.36321843628562,-176.12868175004112,0.51824951171875,0.49310302734375,0.3472900390625,-0.60638427734375,18.263004790780393,73.33255818965576,-85.32774222262488,0.6949186571603345,,,,3,0,3,3
1788939084.2932773,4345817089.0,-9.3828125,0.953125,2.7265625,0.021484375,-0.080078125,0.064453125,19.4375,-7.1875,-32.6875,19.4375,-7.1875,-32.6875,0.06656191056840145,-0.5937458810237312,0.10542322041732011,0.7949347680317415,17.99252969615845,73.33799229731058,-176.1274906200987,0.51849365234375,0.4930419921875,0.3468017578125,-0.6064453125,18.350672828294897,73.26266263690145,-85.23697745154055,1.1718683529537186,,,,3,0,3,3
1788939084.2952447,4345821265.0,-9.38671875,0.98828125,2.80078125,0.021484375,-0.080078125,0.064453125,19.4375,-7.1875,-32.6875,19.4375,-7.1875,-32.6875,0.06644266716798562,-0.5935449408881662,0.10537375201087827,0.7951013441774687,17.98551398375219,73.30735735369969,-176.1211401940188,0.51849365234375,0.4930419921875,0.3468017578125,-0.6064453125,18.350672828294897,73.26266263690145,-85.23697745154055,1.1579460449173609,,,,3,0,3,3
1788939084.2972124,4345824495.0,-9.38671875,0.98828125,2.80078125,0.0234375,-0.076171875,0.05859375,19.4375,-7.1875,-32.6875,19.4375,-7.1875,-32.6875,0.066358857856317,-0.5933964451577922,0.10533157246657376,0.7952247611209169,17.97753944601871,73.28484604472419,-176.11912676131956,0.51849365234375,0.4930419921875,0.3468017578125,-0.6064453125,18.350672828294897,73.26266263690145,-85.23697745154055,1.1481582371395604,,,,3,0,3,3
1788939084.2972124,4345828354.0,-9.42578125,0.98828125,2.6875,0.005859375,-0.07421875,0.05078125,23.1875,-10.3125,-36.3125,23.1875,-10.3125,-36.3125,0.06625520999506358,-0.5932616092759749,0.10557348278927416,0.795301923699128,18.066706012263573,73.26241486535392,-176.04177799671515,0.51873779296875,0.49298095703125,0.34637451171875,-0.60650634765625,18.429185425109907,73.20550411333684,-85.16269186899416,1.3048380676940894,,,,3,0,3,3
1788939084.3113933,4345832460.0,-9.42578125,0.98828125,2.76171875,-0.005859375,-0.072265625,0.037109375,23.1875,-10.3125,-36.3125,23.1875,-10.3125,-36.3125,0.0661565535502315,-0.5930764879983196,0.10578593065332262,0.7954199687471675,18.140433745878557,73.23316269739706,-175.97797433245697,0.51873779296875,0.49298095703125,0.34637451171875,-0.60650634765625,18.429185425109907,73.20550411333684,-85.16269186899416,1.309980479185893,,,,3,0,3,3
1788939084.3121896,4345836290.0,-9.42578125,0.953125,2.83984375,-0.005859375,-0.072265625,0.037109375,23.1875,-10.3125,-36.3125,23.1875,-10.3125,-36.3125,0.06608873995363082,-0.592864344255483,0.10593971481291442,0.7955632750367603,18.185641419050263,73.20109938446632,-175.94044778955242,0.51873779296875,0.49298095703125,0.34637451171875,-0.60650634765625,18.429185425109907,73.20550411333684,-85.16269186899416,1.3148089595837842,,,,3,0,3,3
1788939084.3121896,4345840273.0,-9.4609375,0.9140625,2.83984375,-0.00390625,-0.064453125,0.03125,21.4375,-9.8125,-36.875,21.4375,-9.8125,-36.875,0.06603824383491048,-0.5926422043359582,0.1059530687420404,0.7957311827590784,18.180918850959483,73.16874225060857,-175.9426973284077,0.51898193359375,0.49285888671875,0.34613037109375,-0.60662841796875,18.454119666006267,73.18330380643019,-85.16690144304174,0.5038807609719418,,,,3,0,3,3
1788939084.3141427,4345844303.0,-9.50390625,0.9140625,2.80078125,-0.005859375,-0.05859375,0.025390625,21.4375,-9.8125,-36.875,21.4375,-9.8125,-36.875,0.06598627610543104,-0.5924286292444844,0.10595719669257288,0.7958939647253838,18.1743841696371,73.13760656521262,-175.9458545125029,0.51898193359375,0.49285888671875,0.34613037109375,-0.60662841796875,18.454119666006267,73.18330380643019,-85.16690144304174,0.49719019965172867,,,,3,0,3,3
1788939084.3302958,4345848362.0,-9.5,0.9140625,2.83984375,-0.013671875,-0.05078125,0.025390625,22.5625,-7.875,-33.375,22.5625,-7.875,-33.375,0.06592801427966283,-0.5922970050953968,0.10579509364019943,0.7960183118809676,18.12372076040958,73.11866718102108,-175.97867670539839,0.5191650390625,0.49267578125,0.345947265625,-0.606689453125,18.4476138484001,73.13872638191147,-85.1560340198636,0.8889599305669699,,,,3,0,3,3
1788939084.3302958,4345852368.0,-9.50390625,0.953125,2.80078125,-0.01953125,-0.0390625,0.015625,22.5625,-7.875,-33.375,22.5625,-7.875,-33.375,0.06585388793544608,-0.5921997502252507,0.10560868924655176,0.7961215522974878,18.072094079129112,73.1043110586471,-176.00906264220794,0.5191650390625,0.49267578125,0.345947265625,-0.606689453125,18.4476138484001,73.13872638191147,-85.1560340198636,0.865881659834234,,,,3,0,3,3
1788939084.3283427,4345856398.0,-9.50390625,0.9140625,2.80078125,-0.01953125,-0.0390625,0.015625,22.5625,-7.875,-33.375,22.5625,-7.875,-33.375,0.06579773192741573,-0.5921088153315993,0.10541252360725425,0.7962198246380003,18.013954372438747,73.0912866857085,-176.04661468319472,0.5191650390625,0.49267578125,0.345947265625,-0.606689453125,18.4476138484001,73.13872638191147,-85.1560340198636,0.8441442458042925,,,,3,0,3,3
1788939084.3263607,4345859404.0,-9.5,0.9140625,2.83984375,-0.015625,-0.037109375,0.005859375,18.3125,-9.375,-32.0625,18.3125,-9.375,-32.0625,0.06579614689024402,-0.5920165711779398,0.10553310197029332,0.7962725732396164,18.04440432297873,73.07771814399716,-176.02623539152603,0.51934814453125,0.4925537109375,0.3458251953125,-0.606689453125,18.459805485357936,73.10947218033024,-85.12995589679409,0.9711151709795236,,,,3,0,3,3
1788939084.3302958,4345864210.0,-9.42578125,0.9140625,2.87890625,-0.0078125,-0.041015625,0.00390625,18.3125,-9.375,-32.0625,18.3125,-9.375,-32.0625,0.0658063798481988,-0.5918304480094204,0.10570422122991716,0.7963873798563235,18.07975235872345,73.0510002966578,-176.00634799414473,0.51934814453125,0.4925537109375,0.3458251953125,-0.606689453125,18.459805485357936,73.10947218033024,-85.12995589679409,0.9869020657017689,,,,3,0,3,3
1788939084.3469691,4345867493.0,-9.42578125,0.9140625,2.91796875,-0.01171875,-0.03125,0.001953125,18.3125,-9.375,-32.0625,18.3125,-9.375,-32.0625,0.06581115078184292,-0.5917083615082949,0.10579911454442847,0.7964650994962388,18.09781497465356,73.0335202374994,-175.9968344163948,0.5194091796875,0.492431640625,0.345703125,-0.6068115234375,18.43372755051863,73.08730330590708,-85.16174200417818,0.9433406799752155,,,,3,0,3,3
1788939084.3469691,4345871600.0,-9.4609375,0.9140625,2.7265625,-0.017578125,-0.029296875,-0.001953125,18.3125,-9.375,-32.0625,18.3125,-9.375,-32.0625,0.06581432393046605,-0.5916694235893312,0.10596022888709024,0.796472345941301,18.144779337723783,73.02732240146489,-175.96354624163058,0.5194091796875,0.492431640625,0.345703125,-0.6068115234375,18.43372755051863,73.08730330590708,-85.16174200417818,0.9572228102281025,,,,3,0,3,3
1788939084.345016,4345876053.0,-9.3828125,0.953125,2.7265625,-0.017578125,-0.029296875,-0.001953125,18.3125,-9.375,-32.0625,18.3125,-9.375,-32.0625,0.06579380225798905,-0.591607260953277,0.10614136187254933,0.7964960989682489,18.201262852979468,73.0172307223818,-175.92050790046798,0.5194091796875,0.492431640625,0.345703125,-0.6068115234375,18.43372755051863,73.08730330590708,-85.16174200417818,0.9709804410460839,,,,3,0,3,3
1788939084.3469691,4345879712.0,-9.31640625,0.875,2.87890625,-0.017578125,-0.0390625,-0.009765625,19.8125,-7.75,-30.3125,19.8125,-7.75,-30.3125,0.06580253976930196,-0.5914720578755612,0.10601343911123164,0.7966128176474235,18.14641907829647,72.99913703103375,-175.9658472198891,0.51947021484375,0.49224853515625,0.345703125,-0.60687255859375,18.37912895374793,73.0636985970698,-85.19517308346472,1.2274895600845275,,,,3,0,3,3
1788939084.3619854,4345883242.0,-9.234375,0.875,2.91796875,-0.013671875,-0.03125,-0.013671875,19.8125,-7.75,-30.3125,19.8125,-7.75,-30.3125,0.06581668235388052,-0.5913457323312137,0.10591016139935795,0.7967191643797398,18.099090093927835,72.98227581038911,-176.006129724378,0.51947021484375,0.49224853515625,0.345703125,-0.60687255859375,18.37912895374793,73.0636985970698,-85.19517308346472,1.2232304269841148,,,,3,0,3,3
1788939084.3632803,4345887601.0,-9.19921875,0.875,2.91796875,-0.0234375,-0.017578125,-0.017578125,19.5625,-10.0625,-30.25,19.5625,-10.0625,-30.25,0.06584408082528218,-0.5912451529867233,0.10603654372775462,0.7967747344665567,18.123962218804035,72.96816458932376,-175.99421458177096,0.51953125,0.49212646484375,0.34564208984375,-0.60699462890625,18.344631915228884,73.05401783867886,-85.24237357702097,0.9346847146530844,,,,3,0,3,3
1788939084.3613272,4345890978.0,-9.1171875,0.875,2.91796875,-0.0234375,-0.017578125,-0.017578125,19.5625,-10.0625,-30.25,19.5625,-10.0625,-30.25,0.06586397280651579,-0.5911627769102339,0.10613010393379824,0.7968217550499765,18.141729871517217,72.95660105546463,-175.9860279435424,0.51953125,0.49212646484375,0.34564208984375,-0.60699462890625,18.344631915228884,73.05401783867886,-85.24237357702097,0.9461089791622166,,,,3,0,3,3
1788939084.3613272,4345895784.0,-9.1953125,0.9140625,2.80078125,-0.01171875,-0.00390625,-0.01953125,19.5625,-10.0625,-30.25,19.5625,-10.0625,-30.25,0.06589829356179451,-0.591116144083893,0.1063146456137215,0.7968289121493161,18.18829233594045,72.94990739962367,-175.957659338203,0.51953125,0.49212646484375,0.34564208984375,-0.60699462890625,18.344631915228884,73.05401783867886,-85.24237357702097,0.9664078254701804,,,,3,0,3,3
1788939084.3755186,4345899643.0,-9.234375,0.953125,2.83984375,-0.009765625,0.005859375,-0.02734375,20.6875,-7.3125,-30.5,20.6875,-7.3125,-30.5,0.06589991940427634,-0.5910619303295848,0.10615098430816015,0.7968908103799314,18.13124269741407,72.94317648762681,-176.00145619121955,0.51947021484375,0.4920654296875,0.345703125,-0.6070556640625,18.297678581395555,73.05543123452449,-85.28747340354738,1.000729865701231,,,,3,0,3,3
1788939084.3799458,4345902773.0,-9.2734375,0.953125,2.87890625,-0.013671875,0.0078125,-0.03125,20.6875,-7.3125,-30.5,20.6875,-7.3125,-30.5,0.0659050132331234,-0.5910172072141555,0.1060165840881991,0.7969414494840833,18.083569173957923,72.9376970928825,-176.0385558322254,0.51947021484375,0.4920654296875,0.345703125,-0.6070556640625,18.297678581395555,73.05543123452449,-85.28747340354738,0.9907922493209229,,,,3,0,3,3
1788939084.3799458,4345906832.0,-9.3125,0.9140625,2.953125,-0.0078125,0.01953125,-0.0390625,20.6875,-7.3125,-30.5,20.6875,-7.3125,-30.5,0.06594685877984728,-0.5909750176514459,0.10584829418026659,0.7969916429599947,18.01724868060672,72.9335494078794,-176.0945140034192,0.51934814453125,0.49200439453125,0.3458251953125,-0.60711669921875,18.230851368689606,73.06100537724829,-85.34699765091837,1.1553773560553764,,,,3,0,3,3
1788939084.3887925,4345910909.0,-9.3125,0.875,2.9921875,-0.0078125,0.01953125,-0.0390625,20.6875,-7.3125,-30.5,20.6875,-7.3125,-30.5,0.06599971973095567,-0.5909321137560273,0.10567935932068111,0.797041496373206,17.948239763453156,72.9295326593847,-176.1540143775375,0.51934814453125,0.49200439453125,0.3458251953125,-0.60711669921875,18.230851368689606,73.06100537724829,-85.34699765091837,1.1485335877859544,,,,3,0,3,3
1788939084.3907456,4345915015.0,-9.31640625,0.875,2.83984375,-0.017578125,0.0234375,-0.04296875,20.6875,-7.3125,-30.5,20.6875,-7.3125,-30.5,0.06604256067981919,-0.5909273375408217,0.1054439143548121,0.7970726709976345,17.863819392677932,72.93093535060285,-176.22250742556554,0.51934814453125,0.49200439453125,0.3458251953125,-0.60711669921875,18.230851368689606,73.06100537724829,-85.34699765091837,1.1360365900401992,,,,3,0,3,3
1788939084.3977573,4345919175.0,-9.34375,0.875,2.7265625,-0.02734375,0.033203125,-0.041015625,22.75,-9.5,-34.5625,22.75,-9.5,-34.5625,0.06609428938631305,-0.5910049715523525,0.10554848575968379,0.7969969797086807,17.892206778688486,72.94246060826045,-176.2068102634485,0.5191650390625,0.491943359375,0.3460693359375,-0.607177734375,18.13534765066994,73.08320094520084,-85.43672137192226,1.189651906635085,,,,3,0,3,3
1788939084.3977573,4345922104.0,-9.42578125,0.8359375,2.7265625,-0.017578125,0.017578125,-0.037109375,22.75,-9.5,-34.5625,22.75,-9.5,-34.5625,0.06620035889165354,-0.5910913890803897,0.10554274693135875,0.79692484639884,17.874344880816587,72.95694138924105,-176.23268677790074,0.5191650390625,0.491943359375,0.3460693359375,-0.607177734375,18.13534765066994,73.08320094520084,-85.43672137192226,1.195722729670204,,,,3,0,3,3
1788939084.3958042,4345926134.0,-9.42578125,0.8359375,2.83984375,-0.017578125,0.017578125,-0.037109375,22.75,-9.5,-34.5625,22.75,-9.5,-34.5625,0.06630479116209863,-0.5910172638994979,0.10548141265949396,0.7969792594698178,17.825105236844045,72.94914007303795,-176.2856292082959,0.5191650390625,0.491943359375,0.3460693359375,-0.607177734375,18.13534765066994,73.08320094520084,-85.43672137192226,1.2009891041038083,,,,3,0,3,3
1788939084.3977573,4345930317.0,-9.42578125,0.8359375,2.87890625,-0.0078125,0.025390625,-0.025390625,23.5625,-10.25,-35.875,23.5625,-10.25,-35.875,0.0663880861702746,-0.5909534620340077,0.10554676921977142,0.7970109831313099,17.821620399366623,72.94172552374755,-176.3015243615041,0.51910400390625,0.491943359375,0.34625244140625,-0.607177734375,18.097989826426907,73.11233895711172,-85.48256134933165,0.8112071593434012,,,,3,0,3,3
1788939084.3977573,4345933746.0,-9.42578125,0.8359375,2.83984375,-0.013671875,0.029296875,-0.025390625,23.5625,-10.25,-35.875,23.5625,-10.25,-35.875,0.06646043098831973,-0.5909203935169648,0.1056225680304297,0.7970194306045867,17.82657730826936,72.93833088829783,-176.30886152740868,0.51910400390625,0.491943359375,0.34625244140625,-0.607177734375,18.097989826426907,73.11233895711172,-85.48256134933165,0.8281210203985128,,,,3,0,3,3
1788939084.4151196,4345938206.0,-9.42578125,0.8359375,2.76171875,-0.01171875,0.03515625,-0.021484375,22.4375,-7.375,-36.125,22.4375,-7.375,-36.125,0.06646942028707326,-0.5909985120339111,0.10536156899796573,0.796995304075683,17.748782566924643,72.95067868031528,-176.3656207751108,0.51898193359375,0.491943359375,0.346435546875,-0.607177734375,18.049284608193,73.13316408682131,-85.52737341564449,0.8068303828031188,,,,3,0,3,3
1788939084.4151196,4345942212.0,-9.42578125,0.8359375,2.6875,-0.015625,0.0390625,-0.01953125,22.4375,-7.375,-36.125,22.4375,-7.375,-36.125,0.066466532730857,-0.5910961439659936,0.10512135447186079,0.7969548603586483,17.681825779881397,72.96539425175894,-176.41223493256734,0.51898193359375,0.491943359375,0.346435546875,-0.607177734375,18.049284608193,73.13316408682131,-85.52737341564449,0.7791273173139849,,,,3,0,3,3
1788939084.4151196,4345946265.0,-9.42578125,0.8359375,2.6875,-0.015625,0.0390625,-0.01953125,22.4375,-7.375,-36.125,22.4375,-7.375,-36.125,0.06646273633535182,-0.5911945616346268,0.10487833039675473,0.7969141928624739,17.614157175688927,72.98020254576197,-176.45925369550073,0.51898193359375,0.491943359375,0.346435546875,-0.607177734375,18.049284608193,73.13316408682131,-85.52737341564449,0.7511891478868249,,,,3,0,3,3
1788939084.4299219,4345950225.0,-9.421875,0.796875,2.6875,-0.01171875,0.03125,-0.01171875,22.1875,-8.875,-33.9375,22.1875,-8.875,-33.9375,0.06652509329808602,-0.5913376522316979,0.10471529076872173,0.7968242597298394,17.56078395997097,73.00235315601654,-176.50390677806624,0.51885986328125,0.49200439453125,0.3465576171875,-0.60711669921875,18.036426938875454,73.14425659832679,-85.52573894720764,1.1343775960551994,,,,3,0,3,3
1788939084.430265,4345953954.0,-9.46484375,0.796875,2.6875,-0.005859375,0.029296875,-0.005859375,22.1875,-8.875,-33.9375,22.1875,-8.875,-33.9375,0.06657879316903549,-0.5914737436767681,0.10458847193481124,0.7967354180526209,17.520142539448845,73.02316972095532,-176.53812900263486,0.51885986328125,0.49200439453125,0.3465576171875,-0.60711669921875,18.036426938875454,73.14425659832679,-85.52573894720764,1.1279165414220533,,,,3,0,3,3
1788939084.430265,4345958314.0,-9.4609375,0.76171875,2.6484375,-0.00390625,0.02734375,-0.00390625,19.375,-10.25,-31.375,19.375,-10.25,-31.375,0.06662386431401923,-0.591563900180543,0.10476274043035307,0.7966418146975303,17.573161548119007,73.0360403275206,-176.50297879179433,0.518798828125,0.4920654296875,0.3466796875,-0.6070556640625,18.0348457047708,73.16371099242785,-85.52525914823516,1.1040859326433201,,,,3,0,3,3
1788939084.430265,4345961443.0,-9.4609375,0.76171875,2.6484375,0.001953125,0.01953125,0.005859375,19.375,-10.25,-31.375,19.375,-10.25,-31.375,0.06665150898415816,-0.5916163496562777,0.10490335401092196,0.7965820469272296,17.61619649712559,73.04338311618812,-176.47369778548338,0.518798828125,0.4920654296875,0.3466796875,-0.6070556640625,18.0348457047708,73.16371099242785,-85.52525914823516,1.1149933234114866,,,,3,0,3,3
1788939084.430265,4345965796.0,-9.50390625,0.76171875,2.5703125,0.001953125,0.01953125,0.005859375,19.375,-10.25,-31.375,19.375,-10.25,-31.375,0.0666831313360633,-0.5917107359294149,0.10507814325564029,0.7964862514764677,17.672893152611383,73.05654116407504,-176.43379734765702,0.518798828125,0.4920654296875,0.3466796875,-0.6070556640625,18.0348457047708,73.16371099242785,-85.52525914823516,1.1281159445704145,,,,3,0,3,3
1788939084.447513,4345969556.0,-9.46484375,0.68359375,2.609375,0.005859375,0.013671875,0.0078125,19.5,-8.6875,-30.5,19.5,-8.6875,-30.5,0.06676502443855017,-0.5918223325606418,0.10510622202267193,0.796392767600461,17.673115900898765,73.07386629394429,-176.44233317153987,0.518798828125,0.49212646484375,0.3466796875,-0.6070556640625,18.05412484634093,73.17837623579405,-85.52460578696413,0.7035470806215818,,,,3,0,3,3
1788939084.447513,4345973285.0,-9.50390625,0.64453125,2.609375,0.005859375,0.01171875,0.015625,19.5,-8.6875,-30.5,19.5,-8.6875,-30.5,0.06684372888652035,-0.5919280151214825,0.10512005441572864,0.796305792382877,17.668993080022574,73.09035746263648,-176.45379076159338,0.518798828125,0.49212646484375,0.3466796875,-0.6070556640625,18.05412484634093,73.17837623579405,-85.52460578696413,0.7135170523592628,,,,3,0,3,3
1788939084.447513,4345982398.0,-9.54296875,0.72265625,2.45703125,0.0234375,0.01171875,0.025390625,19.6875,-7.8125,-31.0625,19.6875,-7.8125,-31.0625,0.06688006040001324,-0.5922093366439652,0.10507580136846478,0.7960993876893641,17.671214531205095,73.13084272132407,-176.4501709337568,0.51873779296875,0.49224853515625,0.3466796875,-0.60699462890625,18.089378536892248,73.18744611584721,-85.4919162495871,0.8469099802023294,,,,3,0,3,3
1788939084.4633298,4345985128.0,-9.50390625,0.68359375,2.53125,0.02734375,-0.00390625,0.029296875,19.6875,-7.8125,-31.0625,19.6875,-7.8125,-31.0625,0.06690503269923452,-0.5922665420283166,0.10504324836815714,0.7960590278148978,17.660160885330892,73.1395653899209,-176.46043871151667,0.51873779296875,0.49224853515625,0.3466796875,-0.60699462890625,18.089378536892248,73.18744611584721,-85.4919162495871,0.8461289538453896,,,,3,0,3,3
1788939084.4660933,4345989087.0,-9.5,0.76171875,2.609375,0.025390625,-0.015625,0.037109375,19.5625,-8.5625,-29.8125,19.5625,-8.5625,-29.8125,0.06693835606513156,-0.5923225587645351,0.10519729893396704,0.7959942029706807,17.706775885535684,73.14747196914587,-176.42914431585444,0.51873779296875,0.4923095703125,0.34649658203125,-0.60699462890625,18.134892913454497,73.16450837062646,-85.44397627740214,1.2626193059763928,,,,3,0,3,3
1788939084.4660933,4345992617.0,-9.4609375,0.76171875,2.6484375,0.02734375,-0.017578125,0.0390625,19.5625,-8.5625,-29.8125,19.5625,-8.5625,-29.8125,0.0669869235313299,-0.5923585221912128,0.10535254015387129,0.7959428217820531,17.748592399394433,73.15288753249214,-176.40405073704804,0.51873779296875,0.4923095703125,0.34649658203125,-0.60699462890625,18.134892913454497,73.16450837062646,-85.44397627740214,1.2758117717982878,,,,3,0,3,3
1788939084.4771006,4345996476.0,-9.46484375,0.796875,2.5703125,0.03515625,-0.013671875,0.044921875,19.5625,-8.5625,-29.8125,19.5625,-8.5625,-29.8125,0.06699588673927241,-0.5924137887064774,0.10553580333046038,0.7958766539645765,17.810074094107566,73.1600109359564,-176.35830463616549,0.518798828125,0.492431640625,0.34625244140625,-0.60699462890625,18.21965718230806,73.15208316492796,-85.38091108684524,1.1982739863640843,,,,3,0,3,3
1788939084.4790537,4346000753.0,-9.4609375,0.8359375,2.37890625,0.03515625,-0.013671875,0.044921875,19.5625,-8.5625,-29.8125,19.5625,-8.5625,-29.8125,0.06697461814891353,-0.5924855387008241,0.10571831059145281,0.7958008078406873,17.87967707382918,73.1687727304224,-176.30184934219116,0.518798828125,0.492431640625,0.34625244140625,-0.60699462890625,18.21965718230806,73.15208316492796,-85.38091108684524,1.208449332235205,,,,3,0,3,3
1788939084.4807904,4346004959.0,-9.578125,0.8359375,2.37890625,0.048828125,-0.02734375,0.041015625,19.5625,-8.5625,-29.8125,19.5625,-8.5625,-29.8125,0.06698232253797266,-0.5925344365667384,0.10590618065866426,0.7957387704820289,17.942453435090325,73.17492863090001,-176.2551027785444,0.518798828125,0.492431640625,0.34625244140625,-0.60699462890625,18.21965718230806,73.15208316492796,-85.38091108684524,1.221779698578901,,,,3,0,3,3
1788939084.4807904,4346008818.0,-9.46484375,0.8359375,2.609375,0.048828125,-0.03515625,0.04296875,19.8125,-9.5,-32.625,19.8125,-9.5,-32.625,0.06701165887551454,-0.5925332396484151,0.10614971056259895,0.7957047419954101,18.01368617358741,73.17425990041164,-176.20640571747379,0.51885986328125,0.4925537109375,0.34588623046875,-0.6070556640625,18.3136920008436,73.1265137433596,-85.31688770799848,1.1946289645687977,,,,3,0,3,3
1788939084.4908838,4346013125.0,-9.4609375,0.875,2.7265625,0.037109375,-0.0390625,0.04296875,19.8125,-9.5,-32.625,19.8125,-9.5,-32.625,0.06702609151209564,-0.5924437830570509,0.1064708041096423,0.7957272364610302,18.105120829776855,73.16048855855934,-176.14292201555006,0.51885986328125,0.4925537109375,0.34588623046875,-0.6070556640625,18.3136920008436,73.1265137433596,-85.31688770799848,1.2182050869100507,,,,3,0,3,3
1788939084.48437,4346016754.0,-9.50390625,0.953125,2.609375,0.037109375,-0.0390625,0.04296875,19.8125,-9.5,-32.625,19.8125,-9.5,-32.625,0.06699823107841239,-0.5924244401533785,0.10670516576848117,0.7957125909143581,18.18464532780798,73.15600638951986,-176.08052709186146,0.51885986328125,0.4925537109375,0.34588623046875,-0.6070556640625,18.3136920008436,73.1265137433596,-85.31688770799848,1.2327662367769097,,,,3,0,3,3
1788939084.4953446,4346019960.0,-9.58203125,1.06640625,2.41796875,0.0390625,-0.048828125,0.041015625,21.875,-7.3125,-35.8125,21.875,-7.3125,-35.8125,0.0669415717937254,-0.5924301169508435,0.1066813932666688,0.7957163205729024,18.190360241064823,73.15564630761283,-176.0681791778945,0.5189208984375,0.49261474609375,0.34552001953125,-0.607177734375,18.380285517499978,73.09821535714975,-85.2840042931686,1.0961608597735135,,,,3,0,3,3
1788939084.4975395,4346024767.0,-9.58203125,1.06640625,2.41796875,0.04296875,-0.052734375,0.03125,21.875,-7.3125,-35.8125,21.875,-7.3125,-35.8125,0.06688193591124446,-0.5924330920845208,0.10663877555191455,0.7957248328415586,18.190472281062345,73.15493368317233,-176.05963932660666,0.5189208984375,0.49261474609375,0.34552001953125,-0.607177734375,18.380285517499978,73.09821535714975,-85.2840042931686,1.0874077180161126,,,,3,0,3,3
1788939084.505299,4346027850.0,-9.4609375,1.02734375,2.5703125,0.02734375,-0.076171875,0.0234375,22.5625,-10.1875,-36.0625,22.5625,-10.1875,-36.0625,0.06685278772401615,-0.5923800304802542,0.10679445105964452,0.795745907614114,18.241988847696724,73.1460626846239,-176.01873192718412,0.51904296875,0.49261474609375,0.34521484375,-0.6072998046875,18.43003627176581,73.07612238914862,-85.26879293898952,0.5724514373358204,,,,3,0,3,3
