pc_unix,dev_us,ax,ay,az,gx,gy,gz,mx_raw,my_raw,mz_raw,mx,my,mz,host_qw,host_qx,host_qy,host_qz,host_roll,host_pitch,host_yaw,chip_qw,chip_qx,chip_qy,chip_qz,chip_roll,chip_pitch,chip_yaw,diff_deg,rel_roll,rel_pitch,rel_yaw,cal_acc,cal_gyr,cal_mag,cal_rv
1788937997.3407648,3258843856.0,-9.8828125,0.453125,-0.41796875,0.01171875,0.015625,-0.005859375,31.875,-6.6875,-28.625,31.875,-6.6875,-28.625,0.06244305781679572,-0.7151429632543244,0.09662285625724054,0.6894457413654862,133.3978217338321,86.53451612483065,-59.524311573023375,0.4439697265625,0.5703125,0.442626953125,-0.53076171875,139.2088380561609,86.78490214510842,36.89204248394669,1.0127752526225309,,,,3,0,3,3
1788937997.3425245,3258847509.0,-9.8828125,0.453125,-0.41796875,0.01171875,0.015625,-0.005859375,31.875,-6.6875,-28.625,31.875,-6.6875,-28.625,0.062460995867974045,-0.7151705397453318,0.09645303216156063,0.6894392907735913,133.5798003291133,86.54500600585918,-59.32990577856652,0.4439697265625,0.5703125,0.442626953125,-0.53076171875,139.2088380561609,86.78490214510842,36.89204248394669,1.0025607269226002,,,,3,0,3,3
1788937997.346483,3258851392.0,-9.8828125,0.4921875,-0.37890625,0.013671875,0.009765625,-0.0078125,31.5,-9.6875,-29.6875,31.5,-9.6875,-29.6875,0.062463847800329264,-0.7151628962189193,0.0966527628313284,0.6894189894591065,133.44251648887337,86.53165019679643,-59.48376266529535,0.4439697265625,0.5703125,0.442626953125,-0.53076171875,139.2088380561609,86.78490214510842,36.89204248394669,1.0150569077173877,,,,3,0,2,3
1788937997.3504941,3258855298.0,-9.8828125,0.53125,-0.37890625,0.00390625,0.0078125,-0.009765625,31.5,-9.6875,-29.6875,31.5,-9.6875,-29.6875,0.0624426440574089,-0.7151534638686559,0.09683539033948096,0.6894050670669483,133.29039489530453,86.51821786525065,-59.649100165643425,0.44390869140625,0.57037353515625,0.442626953125,-0.53082275390625,139.3557241350392,86.86809771107819,37.024796282142475,0.0,,,,3,0,2,3
1788937997.3548305,3258859081.0,-9.84375,0.53125,-0.37890625,0.005859375,0.013671875,-0.013671875,31.875,-7.1875,-29.0,31.875,-7.1875,-29.0,0.06241483823382657,-0.7151545103925331,0.09666513400772332,0.6894303924985687,133.37049458204936,86.52863755132923,-59.552805801108555,0.44390869140625,0.57037353515625,0.442626953125,-0.53082275390625,139.3557241350392,86.86809771107819,37.024796282142475,0.0,,,,3,0,2,3
1788937997.3635607,3258863964.0,-9.8828125,0.53125,-0.37890625,-0.00390625,0.009765625,-0.015625,31.875,-7.1875,-29.0,31.875,-7.1875,-29.0,0.06236552117531936,-0.715150153217395,0.09642600495298516,0.689472860735268,133.4615275151899,86.54321508811604,-59.438190740146304,0.44384765625,0.57037353515625,0.44268798828125,-0.53082275390625,139.53212679799103,86.86825398420189,37.2015608554749,0.0,,,,3,0,2,3
1788937997.3626184,3258868017.0,-9.92578125,0.4921875,-0.37890625,-0.00390625,0.009765625,-0.015625,31.875,-7.1875,-29.0,31.875,-7.1875,-29.0,0.06235114610012012,-0.7151501620931627,0.09621764759908655,0.6895032592588831,133.5771831205134,86.55724670650987,-59.30431670251884,0.44384765625,0.57037353515625,0.44268798828125,-0.53082275390625,139.53212679799103,86.86825398420189,37.2015608554749,0.0,,,,3,0,2,3
1788937997.367952,3258870623.0,-9.8828125,0.453125,-0.33984375,-0.005859375,0.01953125,-0.0234375,31.875,-6.1875,-28.625,31.875,-6.1875,-28.625,0.06236483072353679,-0.7151622404256723,0.09607221313255351,0.6895097734056934,133.70773054347748,86.56724779967568,-59.16298733870017,0.44384765625,0.57037353515625,0.44268798828125,-0.53082275390625,139.53212679799103,86.86825398420189,37.2015608554749,0.0,,,,3,0,2,3
1788937997.3693626,3258874906.0,-9.92578125,0.453125,-0.37890625,-0.017578125,0.017578125,-0.021484375,31.875,-6.1875,-28.625,31.875,-6.1875,-28.625,0.062365668109137976,-0.7151916599590555,0.09581153958307972,0.6895154543946289,133.93797866857096,86.58292186678067,-58.911489525758384,0.4437255859375,0.57037353515625,0.44281005859375,-0.53076171875,139.84277254231034,86.79632441127265,37.51832996929294,0.8557097078182939,,,,3,0,2,3
1788937997.3654275,3258878512.0,-9.92578125,0.37890625,-0.4921875,-0.01171875,0.01953125,-0.025390625,31.875,-6.1875,-28.625,31.875,-6.1875,-28.625,0.062394788990317245,-0.7152507618648152,0.09558937099483189,0.6894823493835557,134.23844712607922,86.59447909112939,-58.5952342640927,0.4437255859375,0.57037353515625,0.44281005859375,-0.53076171875,139.84277254231034,86.79632441127265,37.51832996929294,0.8419147076254622,,,,3,0,2,3
1788937997.3693626,3258882465.0,-9.92578125,0.33984375,-0.453125,-0.01171875,0.01953125,-0.025390625,29.25,-7.5,-23.0,29.25,-7.5,-23.0,0.062454898750945675,-0.7153217588403084,0.09569307343788847,0.6893888617084174,134.385402500738,86.58350102720837,-58.461678811802905,0.4437255859375,0.57037353515625,0.44281005859375,-0.53076171875,139.84277254231034,86.79632441127265,37.51832996929294,0.8489192020599431,,,,3,0,3,3
1788937997.3825269,3258887648.0,-9.921875,0.30078125,-0.453125,-0.015625,0.01953125,-0.029296875,29.25,-7.5,-23.0,29.25,-7.5,-23.0,0.06258271427044863,-0.7154235094559388,0.09578406767615569,0.6892590357562975,134.67251506330027,86.57426624439887,-58.192447261105805,0.44366455078125,0.5703125,0.44293212890625,-0.53076171875,140.09208339352318,86.78554918597311,37.77511221425179,0.9765249596109937,,,,3,0,3,3
1788937997.3876994,3258890731.0,-9.84765625,0.26171875,-0.41796875,-0.009765625,0.017578125,-0.025390625,29.25,-7.5,-23.0,29.25,-7.5,-23.0,0.06270611514139716,-0.715464296661443,0.09583523846382644,0.6891983679574423,134.84821514733633,86.57375974955849,-58.030990238827606,0.44366455078125,0.5703125,0.44293212890625,-0.53076171875,140.09208339352318,86.78554918597311,37.77511221425179,0.9831828664113742,,,,3,0,3,3
1788937997.392006,3258894637.0,-9.88671875,0.22265625,-0.41796875,-0.005859375,0.017578125,-0.021484375,29.25,-7.5,-23.0,29.25,-7.5,-23.0,0.06289192787449158,-0.7155155161550153,0.09586680101563784,0.6891238698613478,135.12071636211715,86.57719035103672,-57.77621093667519,0.443603515625,0.5703125,0.44305419921875,-0.53076171875,140.39065429133677,86.8414498586416,38.07631219783367,0.5312157185226947,,,,3,0,3,3
1788937997.3942869,3258898820.0,-9.88671875,0.26171875,-0.41796875,-0.005859375,0.015625,-0.01953125,29.25,-7.5,-23.0,29.25,-7.5,-23.0,0.06305893964375123,-0.7155617503358641,0.09595356377287,0.6890485216489229,135.32780214969085,86.57609042285186,-57.58983220229315,0.443603515625,0.5703125,0.44305419921875,-0.53076171875,140.39065429133677,86.8414498586416,38.07631219783367,0.5513020525609603,,,,3,0,3,3
1788937997.398222,3258902773.0,-9.84375,0.30078125,-0.41796875,-0.005859375,0.015625,-0.01953125,29.3125,-6.4375,-22.1875,29.3125,-6.4375,-22.1875,0.06319105896266033,-0.7156018407249072,0.09576161971492336,0.6890214857374743,135.67372615512923,86.59306601135337,-57.23897028578448,0.443603515625,0.5703125,0.44305419921875,-0.53076171875,140.39065429133677,86.8414498586416,38.07631219783367,0.5402089062901353,,,,3,0,3,3
1788937997.4009225,3258908156.0,-9.84375,0.30078125,-0.37890625,-0.0078125,0.009765625,-0.017578125,29.3125,-6.4375,-22.1875,29.3125,-6.4375,-22.1875,0.06335588720161453,-0.7155955674613228,0.09551530611360011,0.6890470533168465,135.99361979654947,86.62046575661738,-56.91233715751552,0.44354248046875,0.5703125,0.443115234375,-0.53076171875,140.56731759077627,86.84151184010734,38.253200264804825,0.5310375716582719,,,,3,0,3,3
1788937997.4070568,3258909885.0,-9.84765625,0.33984375,-0.37890625,-0.01171875,0.013671875,-0.017578125,29.3125,-6.4375,-22.1875,29.3125,-6.4375,-22.1875,0.06339918995163242,-0.7155894001682169,0.09543713960474598,0.6890603061158237,136.07807231086127,86.6290577252475,-56.82501181609009,0.44354248046875,0.5703125,0.443115234375,-0.53076171875,140.56731759077627,86.84151184010734,38.253200264804825,0.5269762098771962,,,,3,0,3,3
1788937997.4115055,3258914368.0,-9.84765625,0.37890625,-0.41796875,-0.0078125,0.015625,-0.013671875,29.3125,-6.4375,-22.1875,29.3125,-6.4375,-22.1875,0.06349619970838088,-0.7156299743311834,0.09520290803210307,0.6890416379026556,136.42814810217465,86.64661175101799,-56.463683301699454,0.4434814453125,0.57025146484375,0.4432373046875,-0.53070068359375,140.775334041802,86.75916408193775,38.47238842888802,1.1536136119839537,,,,3,0,3,3
1788937997.4106526,3258917621.0,-9.84375,0.30078125,-0.33984375,-0.0078125,0.015625,-0.013671875,29.3125,-6.4375,-22.1875,29.3125,-6.4375,-22.1875,0.06357659763620165,-0.715606463460815,0.09508420344940464,0.6890750321557892,136.54386357914254,86.66193583209633,-56.34479226411074,0.4434814453125,0.57025146484375,0.4432373046875,-0.53070068359375,140.775334041802,86.75916408193775,38.47238842888802,1.151954166242705,,,,3,0,3,3
1788937997.4126058,3258922104.0,-9.80859375,0.30078125,-0.37890625,-0.0078125,0.01171875,-0.013671875,28.875,-5.5,-22.5,28.875,-5.5,-22.5,0.06364086881745154,-0.7156227746241944,0.09484478203019457,0.6890851555337514,136.81692268475555,86.6804040924532,-56.05738424968084,0.4434814453125,0.57025146484375,0.4432373046875,-0.53070068359375,140.775334041802,86.75916408193775,38.47238842888802,1.144461548713322,,,,3,0,3,3
1788937997.4221418,3258925810.0,-9.8046875,0.1875,-0.37890625,-0.013671875,0.015625,-0.009765625,28.875,-5.5,-22.5,28.875,-5.5,-22.5,0.06370291307930209,-0.7156463157830933,0.09464964845096822,0.6890818047368571,137.0743153352891,86.69483792830624,-55.789087612205186,0.44342041015625,0.57025146484375,0.44329833984375,-0.53070068359375,140.95223995992998,86.75918673530235,38.64912231103916,1.1396806875635956,,,,3,0,3,3
1788937997.4201887,3258929217.0,-9.84765625,0.1875,-0.37890625,-0.0078125,0.0234375,0.0,28.875,-5.5,-22.5,28.875,-5.5,-22.5,0.06375433973512289,-0.715674332275976,0.09449008362171793,0.689069850148325,137.3063344030175,86.70567728552481,-55.54821197399998,0.44342041015625,0.57025146484375,0.44329833984375,-0.53070068359375,140.95223995992998,86.75918673530235,38.64912231103916,1.1354541761270318,,,,3,0,3,3
1788937997.4221418,3258937476.0,-9.8828125,0.33984375,-0.53125,-0.009765625,0.029296875,0.005859375,28.875,-7.0,-23.0,28.875,-7.0,-23.0,0.06373558737797722,-0.715928443830378,0.09463873234068099,0.6887871576598581,137.72448198601023,86.66685187252637,-55.14078731886021,0.44342041015625,0.5703125,0.443359375,-0.5306396484375,141.0769733045708,86.80953582936525,38.77746612440708,0.725239772755312,,,,3,0,3,3
1788937997.4362829,3258941059.0,-9.921875,0.37890625,-0.5703125,0.0,0.01953125,0.005859375,32.0,-6.5625,-27.9375,32.0,-6.5625,-27.9375,0.06373040754097477,-0.7160091209209221,0.09448929194932339,0.6887242899881092,138.00112465686868,86.66791910530591,-54.85152787687506,0.44342041015625,0.5703125,0.443359375,-0.5306396484375,141.0769733045708,86.80953582936525,38.77746612440708,0.7149769472137713,,,,3,0,3,3
1788937997.4362829,3258945542.0,-9.92578125,0.37890625,-0.53125,0.009765625,0.01953125,0.0078125,32.0,-6.5625,-27.9375,32.0,-6.5625,-27.9375,0.06373783327136884,-0.716092930816871,0.09430732152600937,0.688661406026623,138.32241134373035,86.671458710689,-54.51599117588097,0.443359375,0.57037353515625,0.443359375,-0.53057861328125,141.135490470868,86.74939257796507,38.83218994098588,1.0676921355689188,,,,3,0,3,3
1788937997.4362829,3258948925.0,-9.8828125,0.33984375,-0.453125,0.00390625,0.017578125,0.009765625,32.8125,-5.8125,-28.75,32.8125,-5.8125,-28.75,0.06374404969912108,-0.716123738334177,0.09415939961607594,0.6886490361469907,138.50544928560166,86.6784026549667,-54.32137114869427,0.443359375,0.57037353515625,0.443359375,-0.53057861328125,141.135490470868,86.74939257796507,38.83218994098588,1.0624581222820169,,,,3,0,3,3
1788937997.4362829,3258953478.0,-9.84765625,0.4140625,-0.453125,0.00390625,0.017578125,0.009765625,32.8125,-5.8125,-28.75,32.8125,-5.8125,-28.75,0.06372838127805297,-0.7161641611224413,0.0939598720829608,0.6886357020817485,138.72526515534673,86.6865150765063,-54.08397487527035,0.443359375,0.57037353515625,0.443359375,-0.53057861328125,141.135490470868,86.74939257796507,38.83218994098588,1.054714314939943,,,,3,0,3,3
1788937997.4528954,3258956684.0,-9.84765625,0.4140625,-0.4921875,0.005859375,0.013671875,0.009765625,32.8125,-5.8125,-28.75,32.8125,-5.8125,-28.75,0.06371855546649913,-0.7161972943392638,0.09382032527429884,0.6886211787592692,138.89119896322768,86.69167420993988,-53.90583987825535,0.443359375,0.57049560546875,0.443359375,-0.530517578125,141.1844769238796,86.8104870742555,38.87810417537562,0.3510378476241354,,,,3,0,3,3
1788937997.4528954,3258961443.0,-9.84765625,0.4140625,-0.4921875,0.0,0.009765625,0.001953125,32.5625,-6.1875,-28.125,32.5625,-6.1875,-28.125,0.06370323664939141,-0.716248037767882,0.09359014210509307,0.6886011409624577,139.15887686099344,86.70060259924932,-53.61810765942936,0.443359375,0.57049560546875,0.443359375,-0.530517578125,141.1844769238796,86.8104870742555,38.87810417537562,0.3273627941465922,,,,3,0,3,3
1788937997.4506385,3258965150.0,-9.84765625,0.4140625,-0.453125,0.001953125,0.001953125,0.001953125,32.5625,-6.1875,-28.125,32.5625,-6.1875,-28.125,0.06369532872133421,-0.7162629088281638,0.09341292032161737,0.6886104681553177,139.31933834724563,86.71035847933676,-53.44251414070248,0.443359375,0.57049560546875,0.443359375,-0.53045654296875,141.14178051390456,86.73956025828812,38.838472891115586,0.9751625540511989,,,,3,0,3,3
1788937997.4638393,3258969132.0,-9.84375,0.37890625,-0.453125,0.005859375,-0.001953125,-0.001953125,32.5625,-6.1875,-28.125,32.5625,-6.1875,-28.125,0.06371145811741603,-0.7162747128687391,0.09322137785510151,0.6886226546666574,139.51219758095263,86.72268374087942,-53.23530759657499,0.443359375,0.57049560546875,0.443359375,-0.53045654296875,141.14178051390456,86.73956025828812,38.838472891115586,0.9709756795729815,,,,3,0,3,3
1788937997.4677744,3258972309.0,-9.84765625,0.33984375,-0.37890625,0.005859375,-0.001953125,-0.001953125,31.5625,-10.5625,-29.4375,31.5625,-10.5625,-29.4375,0.06372878304137451,-0.7162612784245995,0.09338257471922241,0.6886131845821951,139.37638087149972,86.71438304973141,-53.38571226947791,0.443359375,0.57049560546875,0.443359375,-0.53045654296875,141.14178051390456,86.73956025828812,38.838472891115586,0.9760472652718809,,,,3,0,2,3
1788937997.470139,3258977492.0,-9.84375,0.30078125,-0.41796875,0.005859375,0.00390625,0.001953125,31.5625,-10.5625,-29.4375,31.5625,-10.5625,-29.4375,0.06376332898961971,-0.7162642807697251,0.09364857639991052,0.6885707386375489,139.21345004495194,86.69813237161215,-53.573210545689,0.44329833984375,0.57049560546875,0.443359375,-0.530517578125,141.2394922237649,86.75523234377597,38.929212323662085,0.9069459516985009,,,,3,0,2,3
1788937997.4720922,3258980575.0,-9.8046875,0.30078125,-0.453125,0.001953125,0.005859375,0.00390625,31.5625,-10.5625,-29.4375,31.5625,-10.5625,-29.4375,0.06377657946964209,-0.7162759058977046,0.09380146675121787,0.6885366071436544,139.13425104167234,86.68730477742601,-53.66599671073273,0.44329833984375,0.57049560546875,0.443359375,-0.530517578125,141.2394922237649,86.75523234377597,38.929212323662085,0.9126939047375309,,,,3,0,2,3
1788937997.485459,3258984481.0,-9.84375,0.33984375,-0.4921875,0.0,-0.00390625,0.005859375,31.5625,-10.5625,-29.4375,31.5625,-10.5625,-29.4375,0.06377801974995809,-0.7162847232092632,0.0939904443605968,0.6885015293103572,139.00939742572274,86.67371503741786,-53.80642719220053,0.44329833984375,0.570556640625,0.443359375,-0.53045654296875,141.24232821999223,86.75028858334963,38.93205968176283,0.884934353921498,,,,3,0,2,3
1788937997.485423,3258988864.0,-9.84375,0.37890625,-0.453125,0.005859375,-0.001953125,0.0078125,31.5625,-10.5625,-29.4375,31.5625,-10.5625,-29.4375,0.0637757728420546,-0.7162836909320719,0.09422247327965598,0.6884710962939486,138.82853104337093,86.65810443565611,-54.006088679424884,0.44329833984375,0.570556640625,0.443359375,-0.53045654296875,141.24232821999223,86.75028858334963,38.93205968176283,0.8939269197060995,,,,3,0,2,3
1788937997.4893582,3258992417.0,-9.88671875,0.33984375,-0.41796875,0.005859375,-0.001953125,0.0078125,29.75,-8.25,-21.6875,29.75,-8.25,-21.6875,0.06376504850576577,-0.716278077933451,0.09441251596487012,0.6884518941002353,138.66233424985313,86.64533002945404,-54.1869553469062,0.44329833984375,0.570556640625,0.443359375,-0.53045654296875,141.24232821999223,86.75028858334963,38.93205968176283,0.9013626034404513,,,,3,0,3,3
1788937997.491423,3258998000.0,-9.84765625,0.33984375,-0.41796875,0.0,-0.00390625,0.009765625,29.75,-8.25,-21.6875,29.75,-8.25,-21.6875,0.06373391042662688,-0.7162664409887777,0.09470324996711631,0.6884269522764679,138.38881543082312,86.62524594040018,-54.48171758977898,0.443359375,0.570556640625,0.44329833984375,-0.53045654296875,141.06791192512802,86.75028858334963,38.757643494024386,0.9129405615814488,,,,3,0,3,3
1788937997.4974508,3259000506.0,-9.88671875,0.37890625,-0.41796875,-0.005859375,-0.005859375,0.013671875,29.75,-8.25,-21.6875,29.75,-8.25,-21.6875,0.06370557783702166,-0.7162582428575511,0.09483212748123018,0.6884203632145467,138.24708758279706,86.61584460010745,-54.631678989126485,0.443359375,0.570556640625,0.44329833984375,-0.53045654296875,141.06791192512802,86.75028858334963,38.757643494024386,0.917537397415817,,,,3,0,3,3
1788937997.5031044,3259004212.0,-9.84375,0.33984375,-0.453125,0.00390625,-0.0078125,0.01953125,29.75,-8.25,-21.6875,29.75,-8.25,-21.6875,0.06367965468862499,-0.7162530490707402,0.09503792712640641,0.6883997847785261,138.05909280369053,86.60099183869563,-54.834397613789875,0.443359375,0.57061767578125,0.4432373046875,-0.53045654296875,140.99431945190904,86.7610524052727,38.67702444630192,0.8037971638494753,,,,3,0,3,3
1788937997.504429,3259008495.0,-9.8828125,0.37890625,-0.453125,0.001953125,-0.0078125,0.017578125,29.75,-8.25,-21.6875,29.75,-8.25,-21.6875,0.06363895252350288,-0.7162450408113779,0.0952708043914774,0.6883796910611321,137.83230696361787,86.5837314348533,-55.07691930281436,0.443359375,0.57061767578125,0.4432373046875,-0.53045654296875,140.99431945190904,86.7610524052727,38.67702444630192,0.8149816156229982,,,,3,0,3,3
1788937997.5083642,3259012148.0,-9.8828125,0.33984375,-0.453125,0.001953125,-0.0078125,0.017578125,28.875,-6.0625,-22.875,28.875,-6.0625,-22.875,0.0636685604420387,-0.7162495018261501,0.09512050281605396,0.6883930966308794,137.9803905460509,86.59514214408239,-54.91895098094573,0.443359375,0.57061767578125,0.4432373046875,-0.53045654296875,140.99431945190904,86.7610524052727,38.67702444630192,0.8078809540035918,,,,3,0,3,3
1788937997.5123644,3259015854.0,-9.8828125,0.33984375,-0.4921875,-0.0078125,-0.01171875,0.0234375,28.875,-6.0625,-22.875,28.875,-6.0625,-22.875,0.06367498089598725,-0.7162741385653135,0.09496888295889495,0.6883878024049769,138.148313580101,86.60310841559695,-54.739155854517975,0.44342041015625,0.57061767578125,0.443115234375,-0.53045654296875,140.70052659534977,86.70659636903885,38.379934253345965,1.1597707029359743,,,,3,0,3,3
1788937997.5183625,3259019237.0,-9.8828125,0.33984375,-0.453125,0.00390625,-0.009765625,0.021484375,28.0,-4.9375,-21.875,28.0,-4.9375,-21.875,0.06368503305501871,-0.7162696036806682,0.09483399155836424,0.6884101869184011,138.24785851534958,86.61332670681595,-54.62939251108137,0.44342041015625,0.57061767578125,0.443115234375,-0.53045654296875,140.70052659534977,86.70659636903885,38.379934253345965,1.1552167291310964,,,,3,0,3,3
1788937997.522724,3259027320.0,-9.8828125,0.33984375,-0.4921875,-0.005859375,-0.01953125,0.0234375,28.0,-4.9375,-21.875,28.0,-4.9375,-21.875,0.06367655394101084,-0.7162598261068946,0.09448573184205576,0.688469029413662,138.4754358562606,86.63753529569819,-54.372633104424345,0.44354248046875,0.57061767578125,0.4429931640625,-0.53045654296875,140.352150627531,86.70649234091006,38.0319242272004,1.1431035696769605,,,,3,0,3,3
1788937997.522724,3259031879.0,-9.88671875,0.30078125,-0.453125,-0.001953125,-0.015625,0.0234375,28.5,-5.0625,-22.8125,28.5,-5.0625,-22.8125,0.06368549805438373,-0.7162463640521763,0.09429798743476286,0.6885079468570829,138.59689443644268,86.6522101057099,-54.23654055719856,0.44354248046875,0.57061767578125,0.4429931640625,-0.53045654296875,140.352150627531,86.70649234091006,38.0319242272004,1.13775378636671,,,,3,0,3,3
1788937997.522724,3259035585.0,-9.921875,0.30078125,-0.4921875,-0.0078125,-0.015625,0.02734375,28.5,-5.0625,-22.8125,28.5,-5.0625,-22.8125,0.06367918766026921,-0.7162462928730448,0.09414251490876724,0.688529880173113,138.70693069428262,86.66236117581018,-54.113273812977035,0.44366455078125,0.5706787109375,0.44287109375,-0.53045654296875,140.05226693360913,86.77154886365766,37.727131289883054,0.6065645595575019,,,,3,0,3,3
1788937997.5321925,3259038968.0,-9.8828125,0.26171875,-0.53125,-0.0078125,-0.021484375,0.037109375,32.6875,-7.5625,-27.9375,32.6875,-7.5625,-27.9375,0.06369402048159784,-0.7162782357571443,0.09405934117468265,0.6885066456275548,138.852799986619,86.66521628885698,-53.961820437465214,0.44366455078125,0.5706787109375,0.44287109375,-0.53045654296875,140.05226693360913,86.77154886365766,37.727131289883054,0.603779114693025,,,,3,0,3,3
1788937997.5341601,3259043521.0,-9.92578125,0.26171875,-0.53125,-0.0078125,-0.021484375,0.037109375,32.6875,-7.5625,-27.9375,32.6875,-7.5625,-27.9375,0.0637152502123023,-0.7163203682948278,0.09394653013043874,0.6884762496504846,139.04977803215812,86.66924595664204,-53.757358762218814,0.44366455078125,0.5706787109375,0.44287109375,-0.53045654296875,140.05226693360913,86.77154886365766,37.727131289883054,0.600378761156922,,,,3,0,3,3
1788937997.5341601,3259047028.0,-9.921875,0.30078125,-0.53125,0.001953125,-0.0234375,0.03515625,32.6875,-7.5625,-27.9375,32.6875,-7.5625,-27.9375,0.06373024279653051,-0.7163572337516879,0.09387580600455069,0.6884461510181614,139.19718463210668,86.67066801456778,-53.6054014217248,0.44378662109375,0.5706787109375,0.4427490234375,-0.5303955078125,139.6634821121488,86.70121350721783,37.34375986447496,1.1022499987928593,,,,3,0,3,3
1788937997.544866,3259050810.0,-9.92578125,0.26171875,-0.4921875,0.001953125,-0.02734375,0.041015625,32.1875,-8.1875,-29.0625,32.1875,-8.1875,-29.0625,0.06379636330965192,-0.716381976046856,0.0938451700914362,0.688418457389235,139.34409053060423,86.67352475416953,-53.46138073776073,0.44378662109375,0.5706787109375,0.4427490234375,-0.5303955078125,139.6634821121488,86.70121350721783,37.34375986447496,1.1049250774492216,,,,3,0,3,3
1788937997.5500412,3259054717.0,-9.921875,0.30078125,-0.53125,0.001953125,-0.033203125,0.04296875,32.1875,-8.1875,-29.0625,32.1875,-8.1875,-29.0625,0.06380880160913044,-0.716420884232203,0.09386683329214401,0.6883738599633632,139.42192763642157,86.6683628584952,-53.38634217983565,0.4439697265625,0.5706787109375,0.44256591796875,-0.5303955078125,139.14316295646887,86.70076842204931,36.82388685335727,1.1081393081655924,,,,3,0,3,3
1788937997.5513675,3259058976.0,-9.921875,0.30078125,-0.4921875,0.001953125,-0.037109375,0.041015625,32.1875,-7.6875,-29.0,32.1875,-7.6875,-29.0,0.06382749275477938,-0.7164178476220542,0.09374556309951144,0.6883918129789002,139.52973416434423,86.67781256613658,-53.270137352495254,0.4439697265625,0.5706787109375,0.44256591796875,-0.5303955078125,139.14316295646887,86.70076842204931,36.82388685335727,1.1065183841403912,,,,3,0,3,3
1788937997.553581,3259062453.0,-9.921875,0.30078125,-0.53125,0.001953125,-0.037109375,0.041015625,32.1875,-7.6875,-29.0,32.1875,-7.6875,-29.0,0.06383207399496584,-0.7164345503776366,0.09367158884813002,0.6883840750608354,139.62698760478142,86.68110037160123,-53.167212794293484,0.4439697265625,0.5706787109375,0.44256591796875,-0.5303955078125,139.14316295646887,86.70076842204931,36.82388685335727,1.1054165552272464,,,,3,0,3,3
1788937997.5602217,3259067035.0,-9.921875,0.30078125,-0.453125,0.001953125,-0.0390625,0.04296875,32.1875,-7.6875,-29.0,32.1875,-7.6875,-29.0,0.06385762007791279,-0.7163926175278037,0.09352767769518912,0.6884449109511899,139.68003107233793,86.69681322810594,-53.1044634134591,0.44415283203125,0.5706787109375,0.4423828125,-0.53045654296875,138.66404692605184,86.77027566917597,36.33763432975649,0.6074096226186817,,,,3,0,3,3
1788937997.5652885,3259070818.0,-9.8828125,0.33984375,-0.453125,0.00390625,-0.044921875,0.044921875,31.625,-7.9375,-30.5,31.625,-7.9375,-30.5,0.06384203709278832,-0.7163541640258686,0.09340372861433598,0.688503194955246,139.6798027926147,86.70858431724409,-53.09327230709309,0.44415283203125,0.5706787109375,0.4423828125,-0.53045654296875,138.66404692605184,86.77027566917597,36.33763432975649,0.6015929303797178,,,,3,0,2,3
1788937997.5725083,3259074325.0,-9.84765625,0.33984375,-0.41796875,0.01171875,-0.04296875,0.04296875,31.625,-7.9375,-30.5,31.625,-7.9375,-30.5,0.06383928645731494,-0.7162874968609747,0.09330211698134211,0.6885865830177494,139.61683114096994,86.72275657864272,-53.147685914065505,0.4443359375,0.5706787109375,0.442138671875,-0.53045654296875,138.0232727510769,86.71486223589362,35.69700904250866,1.0344440281224097,,,,3,0,2,3
1788937997.5705264,3259078707.0,-9.84765625,0.33984375,-0.41796875,0.005859375,-0.0390625,0.046875,31.625,-7.9375,-30.5,31.625,-7.9375,-30.5,0.06381940450574759,-0.7162124036814549,0.09317166473542567,0.6886841927268216,139.53936371184517,86.73887359217238,-53.21283969121946,0.4443359375,0.5706787109375,0.442138671875,-0.53045654296875,138.0232727510769,86.71486223589362,35.69700904250866,1.030909768611287,,,,3,0,2,3
1788937997.5744615,3259082460.0,-9.8046875,0.37890625,-0.41796875,0.005859375,-0.0390625,0.046875,28.8125,-7.0625,-23.375,28.8125,-7.0625,-23.375,0.063744929792585,-0.7161416605109179,0.09342103523336495,0.6887308735510045,139.1108395535158,86.72614243657692,-53.65567009157752,0.4443359375,0.5706787109375,0.442138671875,-0.53045654296875,138.0232727510769,86.71486223589362,35.69700904250866,1.028997202010157,,,,3,0,3,3
1788937997.5772457,3259087843.0,-9.80859375,0.4140625,-0.41796875,0.005859375,-0.0390625,0.044921875,28.8125,-7.0625,-23.375,28.8125,-7.0625,-23.375,0.06360749544933357,-0.7160389685579284,0.093767962671883,0.6888032020871603,138.47477100113224,86.70671803774056,-54.30888892669256,0.44451904296875,0.5706787109375,0.44189453125,-0.530517578125,137.42245979349423,86.7294207388331,35.088385209930266,0.9520062190458942,,,,3,0,3,3
1788937997.5811808,3259090350.0,-9.8828125,0.4921875,-0.33984375,0.01171875,-0.037109375,0.044921875,28.8125,-7.0625,-23.375,28.8125,-7.0625,-23.375,0.06353619302283596,-0.7159609515977579,0.09391239318913855,0.6888712001302467,138.12166938616284,86.7016080793541,-54.6679720201411,0.44451904296875,0.5706787109375,0.44189453125,-0.530517578125,137.42245979349423,86.7294207388331,35.088385209930266,0.9494852952925603,,,,3,0,3,3
1788937997.591779,3259094056.0,-9.84375,0.4921875,-0.33984375,0.005859375,-0.0390625,0.037109375,28.8125,-7.0625,-23.375,28.8125,-7.0625,-23.375,0.06343250141097621,-0.7158456836221339,0.09410817510356226,0.6889738212609994,137.6169175142415,86.69511593609163,-55.18025666882369,0.4447021484375,0.57073974609375,0.441650390625,-0.53057861328125,136.87702500648533,86.80986566445219,34.52344127231548,0.0,,,,3,0,3,3
1788937997.5858653,3259098339.0,-9.8828125,0.53125,-0.37890625,0.001953125,-0.033203125,0.033203125,28.8125,-7.0625,-23.375,28.8125,-7.0625,-23.375,0.06329052527412322,-0.7157485149089883,0.09433712935607201,0.6890565135320607,137.08911599784548,86.6819627403725,-55.71519570286675,0.4447021484375,0.57073974609375,0.441650390625,-0.53057861328125,136.87702500648533,86.80986566445219,34.52344127231548,0.0,,,,3,0,3,3
1788937997.5903213,3259101792.0,-9.8828125,0.53125,-0.37890625,0.001953125,-0.033203125,0.033203125,28.4375,-6.625,-23.6875,28.4375,-6.625,-23.6875,0.06313647077277046,-0.7156524747568411,0.09445116442878379,0.6891547714199001,136.63759045565664,86.67564923297545,-56.16347735189778,0.4447021484375,0.57073974609375,0.441650390625,-0.53057861328125,136.87702500648533,86.80986566445219,34.52344127231548,0.0,,,,3,0,3,3
1788937997.5950522,3259105898.0,-9.8828125,0.4921875,-0.33984375,-0.005859375,-0.03125,0.02734375,28.4375,-6.625,-23.6875,28.4375,-6.625,-23.6875,0.06300366620374198,-0.7155145829386985,0.09451324133478077,0.6893015790344176,136.15491753877726,86.67838077342242,-56.640372073408294,0.44482421875,0.57073974609375,0.44146728515625,-0.53057861328125,136.4099006284531,86.75365645742185,34.05846089454749,0.704599910665362,,,,3,0,3,3
1788937997.5970054,3259109481.0,-9.92578125,0.53125,-0.37890625,-0.0078125,-0.03125,0.0234375,29.3125,-6.4375,-22.1875,29.3125,-6.4375,-22.1875,0.06284982366393099,-0.7154241743987468,0.0946315136000799,0.6893932310264165,135.71555937998582,86.6707643974267,-57.07685353532827,0.44482421875,0.57073974609375,0.44146728515625,-0.53057861328125,136.4099006284531,86.75365645742185,34.05846089454749,0.6966013517591523,,,,3,0,3,3
1788937997.6154099,3259113864.0,-9.8828125,0.4921875,-0.37890625,-0.0078125,-0.025390625,0.0234375,29.3125,-6.4375,-22.1875,29.3125,-6.4375,-22.1875,0.062666149057173,-0.7153120236358415,0.09475999001291975,0.6895086706467823,135.19314674839015,86.66274125508305,-57.59478979643725,0.4449462890625,0.5706787109375,0.4412841796875,-0.5306396484375,135.9234928152296,86.70318744103184,33.57625916846158,1.1106853942263246,,,,3,0,3,3
1788937997.6114168,3259117817.0,-9.92578125,0.4921875,-0.41796875,-0.0078125,-0.025390625,0.0234375,29.3125,-6.4375,-22.1875,29.3125,-6.4375,-22.1875,0.06246850620845707,-0.7152671903715385,0.0948954214596452,0.6895544874018917,134.80387774168244,86.64622688400087,-57.979038239875976,0.4449462890625,0.5706787109375,0.4412841796875,-0.5306396484375,135.9234928152296,86.70318744103184,33.57625916846158,1.1051092707899755,,,,3,0,3,3
1788937997.6154099,3259121600.0,-9.8828125,0.4921875,-0.41796875,-0.013671875,-0.033203125,0.0234375,28.1875,-6.5,-23.0,28.1875,-6.5,-23.0,0.06224912260623381,-0.715221014937807,0.09497318873608682,0.6896115137868472,134.4320549961376,86.63248160805047,-58.339354508296,0.4449462890625,0.5706787109375,0.4412841796875,-0.5306396484375,135.9234928152296,86.70318744103184,33.57625916846158,1.097988800091669,,,,3,0,3,3
1788937997.621258,3259125306.0,-9.8828125,0.4921875,-0.37890625,-0.015625,-0.033203125,0.01953125,28.1875,-6.5,-23.0,28.1875,-6.5,-23.0,0.06208329166863354,-0.7151130721457517,0.09500901586541367,0.6897334600018604,134.00594706293452,86.63100226809098,-58.75486300784381,0.44512939453125,0.5706787109375,0.441162109375,-0.5306396484375,135.52761415410663,86.7563487449876,33.176112439376986,0.6888422320782633,,,,3,0,3,3
1788937997.621258,3259129012.0,-9.88671875,0.53125,-0.30078125,-0.0078125,-0.029296875,0.017578125,28.1875,-6.5,-23.0,28.1875,-6.5,-23.0,0.06198217152154866,-0.7149904747779686,0.09505030276152181,0.6898639513231514,133.60701998012573,86.63430373783152,-59.14889873207994,0.44512939453125,0.5706787109375,0.441162109375,-0.5306396484375,135.52761415410663,86.7563487449876,33.176112439376986,0.6844734531716985,,,,3,0,3,3
1788937997.6290288,3259137071.0,-9.84375,0.53125,-0.33984375,-0.013671875,-0.02734375,0.015625,29.5,-5.125,-22.6875,29.5,-5.125,-22.6875,0.061869512107908524,-0.7148671902961016,0.09469669893956316,0.6900504321566913,133.44751308136438,86.6650372648842,-59.27027387957031,0.44525146484375,0.57061767578125,0.44110107421875,-0.53070068359375,135.28394100784325,86.81586232978952,32.928100954910185,0.0,,,,3,0,3,3
1788937997.630982,3259140854.0,-9.84375,0.53125,-0.33984375,-0.021484375,-0.01953125,0.015625,32.1875,-6.75,-28.9375,32.1875,-6.75,-28.9375,0.06177671030187457,-0.7148161515025153,0.09453130059920754,0.6901342918754534,133.34779357254243,86.67632210941527,-59.348897122205564,0.44525146484375,0.57061767578125,0.44110107421875,-0.53070068359375,135.28394100784325,86.81586232978952,32.928100954910185,0.0,,,,3,0,3,3
1788937997.6430862,3259144560.0,-9.8828125,0.53125,-0.37890625,-0.021484375,-0.021484375,0.0078125,32.1875,-6.75,-28.9375,32.1875,-6.75,-28.9375,0.06168988330219888,-0.7147820379505799,0.09434616980738217,0.6902027214985851,133.30481404346693,86.68768823020093,-59.36965871639349,0.44537353515625,0.570556640625,0.4410400390625,-0.53070068359375,135.00088354211672,86.80406400299893,32.653982872648186,0.0,,,,3,0,3,3
1788937997.6448398,3259148343.0,-9.8828125,0.53125,-0.26171875,-0.025390625,-0.01953125,0.001953125,32.0625,-8.375,-30.125,32.0625,-8.375,-30.125,0.0615921937053778,-0.7146723021328646,0.094369291796454,0.6903219096946774,132.94316981601364,86.69095837658661,-59.7252106840213,0.44537353515625,0.570556640625,0.4410400390625,-0.53070068359375,135.00088354211672,86.80406400299893,32.653982872648186,0.0,,,,3,0,2,3
1788937997.635812,3259152420.0,-9.8828125,0.53125,-0.33984375,-0.025390625,-0.01953125,0.001953125,32.0625,-8.375,-30.125,32.0625,-8.375,-30.125,0.06143586241790949,-0.7145792279720304,0.09444241527167527,0.6904221838538483,132.53069221475346,86.68528984722066,-60.13092004587858,0.44537353515625,0.570556640625,0.4410400390625,-0.53070068359375,135.00088354211672,86.80406400299893,32.653982872648186,0.0,,,,3,0,2,3
1788937997.6448398,3259157003.0,-9.8828125,0.53125,-0.37890625,-0.037109375,-0.017578125,-0.0078125,32.0625,-8.375,-30.125,32.0625,-8.375,-30.125,0.06122481161021985,-0.7145253172911545,0.09451839684844324,0.6904863257519791,132.15576081490164,86.6720964832145,-60.494877691846916,0.44549560546875,0.5704345703125,0.4410400390625,-0.5306396484375,134.7409864602833,86.71134800896871,32.42753898023552,1.0968919841728642,,,,3,0,2,3
1788937997.6448398,3259160185.0,-9.92578125,0.53125,-0.37890625,-0.0390625,-0.013671875,-0.005859375,31.8125,-6.8125,-29.3125,31.8125,-6.8125,-29.3125,0.0611468680590239,-0.7145120815637385,0.09432221057759513,0.690533754727299,132.17260679073036,86.6827459243533,-60.455639985325895,0.44549560546875,0.5704345703125,0.4410400390625,-0.5306396484375,134.7409864602833,86.71134800896871,32.42753898023552,1.091403450800107,,,,3,0,2,3
1788937997.6613874,3259164868.0,-9.92578125,0.453125,-0.37890625,-0.037109375,-0.013671875,-0.0078125,31.8125,-6.8125,-29.3125,31.8125,-6.8125,-29.3125,0.06108961825819076,-0.7144992890270145,0.09402094874929126,0.690593140508391,132.276846838313,86.70219736761695,-60.322099161469566,0.44561767578125,0.5703125,0.441162109375,-0.5306396484375,134.7662610783839,86.79933542904936,32.46083871810203,0.41831713173230883,,,,3,0,2,3
1788937997.6594343,3259168121.0,-9.92578125,0.4921875,-0.37890625,-0.037109375,-0.013671875,-0.0078125,31.8125,-6.8125,-29.3125,31.8125,-6.8125,-29.3125,0.06103018742785201,-0.7144886483546025,0.09381492514436371,0.690637421093798,132.32489643383414,86.71442742138244,-60.25236207208683,0.44561767578125,0.5703125,0.441162109375,-0.5306396484375,134.7662610783839,86.79933542904936,32.46083871810203,0.407048529537907,,,,3,0,2,3
1788937997.6613874,3259172504.0,-9.92578125,0.453125,-0.41796875,-0.03515625,-0.015625,-0.015625,32.5625,-8.125,-28.6875,32.5625,-8.125,-28.6875,0.06092224083309329,-0.7145359972178241,0.09386982227248176,0.6905905050884619,132.29522249718894,86.69925723133457,-60.27775774051907,0.44561767578125,0.5703125,0.441162109375,-0.5306396484375,134.7662610783839,86.79933542904936,32.46083871810203,0.3988252147614125,,,,3,0,2,3
1788937997.6704776,3259176610.0,-9.92578125,0.4140625,-0.41796875,-0.041015625,-0.017578125,-0.015625,32.5625,-8.125,-28.6875,32.5625,-8.125,-28.6875,0.060903701569530434,-0.7146100913742072,0.09384031376675013,0.690519479778402,132.46715490542468,86.69304531094235,-60.10192665390869,0.44573974609375,0.57012939453125,0.4412841796875,-0.5306396484375,134.73014813616928,86.82220141226789,32.448032126502376,0.2556829735804109,,,,3,0,2,3
1788937997.6765752,3259180493.0,-9.88671875,0.4140625,-0.453125,-0.04296875,-0.017578125,-0.015625,28.75,-8.75,-22.1875,28.75,-8.75,-22.1875,0.060853298672286844,-0.7146101698129531,0.0939390796239032,0.6905104130713872,132.3562074583018,86.6828413115623,-60.21685071863522,0.44573974609375,0.57012939453125,0.4412841796875,-0.5306396484375,134.73014813616928,86.82220141226789,32.448032126502376,0.25568942936974726,,,,3,0,3,3
1788937997.6813164,3259184100.0,-9.8828125,0.4140625,-0.41796875,-0.03515625,-0.0234375,-0.009765625,28.75,-8.75,-22.1875,28.75,-8.75,-22.1875,0.060810831038766756,-0.7145946130972933,0.09405154649704157,0.6905149443438707,132.2090770006594,86.67363688161798,-60.36971924302933,0.44580078125,0.57000732421875,0.44134521484375,-0.5306396484375,134.68104842380075,86.80029894069624,32.41830688318416,0.6926279388650184,,,,3,0,3,3
1788937997.6793633,3259188329.0,-9.8828125,0.453125,-0.41796875,-0.03515625,-0.0234375,-0.009765625,28.75,-8.75,-22.1875,28.75,-8.75,-22.1875,0.06075303167479994,-0.7145748807603176,0.09418358838531818,0.6905224548177733,132.0264883119133,86.66245223280785,-60.55839855540617,0.44580078125,0.57000732421875,0.44134521484375,-0.5306396484375,134.68104842380075,86.80029894069624,32.41830688318416,0.6942196238688347,,,,3,0,3,3
1788937997.683075,3259191635.0,-9.8828125,0.453125,-0.41796875,-0.029296875,-0.02734375,-0.009765625,29.4375,-5.1875,-23.0625,29.4375,-5.1875,-23.0625,0.06074153799259485,-0.7145625354942552,0.09397262433016332,0.6905649819581191,132.11796837294042,86.67817037224356,-60.44872599212036,0.44580078125,0.57000732421875,0.44134521484375,-0.5306396484375,134.68104842380075,86.80029894069624,32.41830688318416,0.6875342123596146,,,,3,0,3,3
1788937997.691929,3259196518.0,-9.84375,0.453125,-0.41796875,-0.04296875,-0.02734375,-0.013671875,29.4375,-5.1875,-23.0625,29.4375,-5.1875,-23.0625,0.06070491489101644,-0.7145485734516209,0.09363091022598152,0.6906290626208704,132.26489270001477,86.70191082787235,-60.27087246628452,0.4459228515625,0.56982421875,0.44140625,-0.5306396484375,134.51897546094017,86.76747337643712,32.285503797052236,1.0356115344121188,,,,3,0,3,3
1788937997.6921895,3259199925.0,-9.8828125,0.4140625,-0.37890625,-0.033203125,-0.02734375,-0.017578125,29.4375,-5.1875,-23.0625,29.4375,-5.1875,-23.0625,0.06070799796871294,-0.7145265092148887,0.09340253088599364,0.6906825420089228,132.36175990387912,86.72068434766666,-60.155573516803905,0.4459228515625,0.56982421875,0.44140625,-0.5306396484375,134.51897546094017,86.76747337643712,32.285503797052236,1.0324307722194035,,,,3,0,3,3
1788937997.6921895,3259203307.0,-9.84375,0.453125,-0.37890625,-0.03515625,-0.02734375,-0.0078125,29.8125,-5.6875,-23.0625,29.8125,-5.6875,-23.0625,0.06067724360922502,-0.7145005617646406,0.09318558240964812,0.6907413890718975,132.41026441930867,86.73692747242667,-60.08681881747954,0.446044921875,0.56964111328125,0.44146728515625,-0.53070068359375,134.3943903405243,86.80572601860214,32.175280307854614,0.9035662980337099,,,,3,0,3,3
1788937997.6921895,3259208590.0,-9.84375,0.453125,-0.37890625,-0.029296875,-0.02734375,-0.017578125,29.8125,-5.6875,-23.0625,29.8125,-5.6875,-23.0625,0.060655146369517056,-0.7144623757432732,0.09283860938194526,0.690829544442185,132.52388446193865,86.76422389649672,-59.94301851514049,0.446044921875,0.56964111328125,0.44146728515625,-0.53070068359375,134.3943903405243,86.80572601860214,32.175280307854614,0.8987795630312072,,,,3,0,3,3
1788937997.707771,3259211643.0,-9.84765625,0.37890625,-0.33984375,-0.029296875,-0.02734375,-0.017578125,29.3125,-8.875,-22.8125,29.3125,-8.875,-22.8125,0.060639405636695135,-0.7144342455491581,0.09293615043834892,0.6908469028752564,132.37864205701555,86.7589939380214,-60.094947332311676,0.446044921875,0.56964111328125,0.44146728515625,-0.53070068359375,134.3943903405243,86.80572601860214,32.175280307854614,0.8994772364593256,,,,3,0,3,3
1788937997.703836,3259218903.0,-9.84375,0.4140625,-0.37890625,-0.03125,-0.03125,-0.0078125,29.3125,-8.875,-22.8125,29.3125,-8.875,-22.8125,0.060558872769042746,-0.7143695851628619,0.09318169821192382,0.6908877548788411,131.98979583399148,86.74261492071817,-60.49730035940409,0.4461669921875,0.56951904296875,0.44146728515625,-0.53076171875,134.2053793377766,86.85519299216331,31.990448499259102,0.5996747306816957,,,,3,0,3,3
1788937997.707771,3259219756.0,-9.84375,0.4140625,-0.41796875,-0.029296875,-0.021484375,-0.009765625,29.3125,-8.875,-22.8125,29.3125,-8.875,-22.8125,0.06055032882337644,-0.7143667790904576,0.09320981702198933,0.6908876121497863,131.95700935137077,86.74032843143728,-60.531690189587536,0.4461669921875,0.56951904296875,0.44146728515625,-0.53076171875,134.2053793377766,86.85519299216331,31.990448499259102,0.5999546473994428,,,,3,0,3,3
1788937997.707771,3259223009.0,-9.80859375,0.4140625,-0.33984375,-0.029296875,-0.021484375,-0.009765625,29.3125,-8.875,-22.8125,29.3125,-8.875,-22.8125,0.0605182318445841,-0.7143419790226185,0.09332314919195421,0.6909007674372276,131.79590681443625,86.7325390390479,-60.69944136938481,0.4461669921875,0.56951904296875,0.44146728515625,-0.53076171875,134.2053793377766,86.85519299216331,31.990448499259102,0.6015373184413715,,,,3,0,3,3
1788937997.718738,3259226715.0,-9.8828125,0.4140625,-0.37890625,-0.02734375,-0.021484375,-0.017578125,29.3125,-8.875,-22.8125,29.3125,-8.875,-22.8125,0.06049488992978115,-0.7143228258640095,0.09344167246116401,0.6909065946925823,131.65407682796896,86.7243491786831,-60.849058639234684,0.4462890625,0.5693359375,0.4415283203125,-0.53076171875,134.03897546801502,86.82183179887149,31.853929399010443,0.9877433768516285,,,,3,0,3,3
1788937997.7275739,3259230498.0,-9.80859375,0.453125,-0.37890625,-0.021484375,-0.025390625,-0.009765625,28.125,-6.125,-23.375,28.125,-6.125,-23.375,0.060453001507606616,-0.7143006892015107,0.09321500488236563,0.6909637637964444,131.7035024752736,86.74028056596424,-60.7776837237923,0.4462890625,0.5693359375,0.4415283203125,-0.53076171875,134.03897546801502,86.82183179887149,31.853929399010443,0.982231633893802,,,,3,0,3,3
1788937997.7295814,3259235181.0,-9.84375,0.4921875,-0.41796875,-0.02734375,-0.025390625,-0.015625,28.125,-6.125,-23.375,28.125,-6.125,-23.375,0.0603119634761657,-0.7143380025423798,0.09297039036504091,0.690970470932575,131.80907696833674,86.74567236529877,-60.64064514552425,0.44635009765625,0.5692138671875,0.44158935546875,-0.53082275390625,134.0260118821425,86.8721320530029,31.844950009403295,0.7091047879792459,,,,3,0,3,3
1788937997.7329693,3259238664.0,-9.84375,0.4921875,-0.37890625,-0.01953125,-0.03125,-0.015625,31.375,-5.5625,-27.5625,31.375,-5.5625,-27.5625,0.06029818749160874,-0.7143111018862672,0.09275487393242915,0.6910284449058757,131.86908021701515,86.76297295382402,-60.56189173632179,0.44635009765625,0.5692138671875,0.44158935546875,-0.53082275390625,134.0260118821425,86.8721320530029,31.844950009403295,0.7043184999051274,,,,3,0,3,3
1788937997.7329693,3259243017.0,-9.80859375,0.4140625,-0.37890625,-0.01953125,-0.03125,-0.015625,31.375,-5.5625,-27.5625,31.375,-5.5625,-27.5625,0.06030641689978005,-0.7142805849439708,0.09248363203342987,0.6910956228039025,131.97897648233996,86.78598952245993,-60.43047916461546,0.44635009765625,0.5692138671875,0.44158935546875,-0.53082275390625,134.0260118821425,86.8721320530029,31.844950009403295,0.700608954203303,,,,3,0,3,3
1788937997.7394078,3259247300.0,-9.80859375,0.453125,-0.33984375,-0.02734375,-0.03515625,-0.017578125,31.375,-5.5625,-27.5625,31.375,-5.5625,-27.5625,0.060293231870128874,-0.7142326492753465,0.09220697298689902,0.6911832774542277,132.03118755006705,86.80974046399265,-60.35456302097079,0.44647216796875,0.56903076171875,0.44158935546875,-0.5308837890625,133.76750940890818,86.8542049055099,31.607534639065214,0.9716135314299695,,,,3,0,3,3
1788937997.7450902,3259254012.0,-9.84375,0.33984375,-0.30078125,-0.03125,-0.029296875,-0.013671875,32.8125,-8.25,-29.375,32.8125,-8.25,-29.375,0.06043735873231684,-0.7140351682653822,0.09205682230916641,0.6913947104339367,131.7963394528787,86.8484590174722,-60.588803682023496,0.44659423828125,0.56884765625,0.441650390625,-0.53094482421875,133.63611342591102,86.89344547856099,31.4898977052108,0.8380695865536908,,,,3,0,2,3
1788937997.7431371,3259258742.0,-9.8828125,0.30078125,-0.33984375,-0.03125,-0.029296875,-0.013671875,32.8125,-8.25,-29.375,32.8125,-8.25,-29.375,0.060628834947378946,-0.713974176391232,0.09189428843061302,0.691462551099636,131.9481970249916,86.87785924347146,-60.43921856005081,0.44659423828125,0.56884765625,0.441650390625,-0.53094482421875,133.63611342591102,86.89344547856099,31.4898977052108,0.8448094645295272,,,,3,0,2,3
1788937997.755295,3259262148.0,-9.8828125,0.30078125,-0.33984375,-0.037109375,-0.033203125,-0.013671875,32.4375,-7.3125,-29.3125,32.4375,-7.3125,-29.3125,0.06066010272106162,-0.7139401566571864,0.09167407440196582,0.6915241635204986,132.04427821890837,86.89892638125899,-60.32766982422218,0.44659423828125,0.56884765625,0.441650390625,-0.53094482421875,133.63611342591102,86.89344547856099,31.4898977052108,0.8454572635425828,,,,3,0,2,3
1788937997.755295,3259266054.0,-9.88671875,0.26171875,-0.33984375,-0.03125,-0.029296875,-0.0078125,32.4375,-7.3125,-29.3125,32.4375,-7.3125,-29.3125,0.060707972686928305,-0.7139078295208642,0.09144132586603156,0.6915841502846303,132.17180351981366,86.92173629797442,-60.18500435439693,0.44671630859375,0.56866455078125,0.44171142578125,-0.531005859375,133.50335893872258,86.93317164623991,31.370689745369155,0.6810406255891025,,,,3,0,2,3
1788937997.755295,3259270614.0,-9.88671875,0.30078125,-0.30078125,-0.03125,-0.033203125,0.005859375,32.875,-7.1875,-28.5,32.875,-7.1875,-28.5,0.06072842721234795,-0.7138323157311376,0.09120310699559951,0.6916917495681044,132.1687700188888,86.94742361970943,-60.170209101618276,0.44671630859375,0.56866455078125,0.44171142578125,-0.531005859375,133.50335893872258,86.93317164623991,31.370689745369155,0.6831782294987964,,,,3,0,2,3
1788937997.7689755,3259278296.0,-9.88671875,0.26171875,-0.37890625,-0.017578125,-0.033203125,0.013671875,32.875,-7.1875,-28.5,32.875,-7.1875,-28.5,0.06081219112482509,-0.7137945644106026,0.09083982951283115,0.6917711490099565,132.41578826595307,86.98228998568224,-59.900302857704084,0.44683837890625,0.56854248046875,0.44171142578125,-0.531005859375,133.2659626289348,86.90991294333651,31.15383866639453,0.9331886135582178,,,,3,0,2,3
1788937997.7709286,3259278703.0,-9.88671875,0.33984375,-0.33984375,-0.03125,-0.033203125,0.017578125,32.875,-7.1875,-28.5,32.875,-7.1875,-28.5,0.060810640513187623,-0.7137897794311194,0.09081841812750031,0.6917790338748843,132.4172043884436,86.98419547754924,-59.89700930124048,0.44683837890625,0.56854248046875,0.44171142578125,-0.531005859375,133.2659626289348,86.90991294333651,31.15383866639453,0.9333034625743943,,,,3,0,2,3
1788937997.7709286,3259282456.0,-9.84375,0.33984375,-0.30078125,-0.03125,-0.033203125,0.017578125,32.875,-7.1875,-28.5,32.875,-7.1875,-28.5,0.060792453565444556,-0.7137189584205583,0.09063909612899164,0.6918772147090017,132.34565854516748,87.00282737287178,-59.95240031280256,0.44683837890625,0.56854248046875,0.44171142578125,-0.531005859375,133.2659626289348,86.90991294333651,31.15383866639453,0.9347536191512071,,,,3,0,2,3
1788937997.78334,3259285962.0,-9.8828125,0.30078125,-0.33984375,-0.02734375,-0.037109375,0.015625,32.875,-7.1875,-28.5,32.875,-7.1875,-28.5,0.06080542063054846,-0.7136779292059346,0.09045988722719507,0.6919418494274747,132.38283473104443,87.0204550268606,-59.90162182655633,0.44708251953125,0.56842041015625,0.441650390625,-0.531005859375,132.79374997038443,86.94353802808901,30.693534144265136,0.7436836528277642,,,,3,0,2,3
1788937997.784755,3259289768.0,-9.88671875,0.22265625,-0.33984375,-0.02734375,-0.033203125,0.021484375,32.875,-7.1875,-28.5,32.875,-7.1875,-28.5,0.06083479248896213,-0.7136423275243933,0.09028277163053831,0.6919991167155488,132.45073611029454,87.03840175702966,-59.82162584683843,0.44708251953125,0.56842041015625,0.441650390625,-0.531005859375,132.79374997038443,86.94353802808901,30.693534144265136,0.7483643268580031,,,,3,0,2,3
1788937997.786708,3259297928.0,-9.88671875,0.1875,-0.37890625,-0.037109375,-0.033203125,0.021484375,29.1875,-7.5625,-23.375,29.1875,-7.5625,-23.375,0.060875809899074394,-0.7136193017360816,0.09051951086595077,0.691988328016758,132.265705200814,87.02618854972545,-60.029334519161665,0.447265625,0.56829833984375,0.44158935546875,-0.531005859375,132.3702744242083,86.91945432382545,30.291169875059,0.9727210860911769,,,,3,0,3,3
1788937997.786708,3259301410.0,-9.84765625,0.1875,-0.33984375,-0.025390625,-0.03125,0.03125,29.25,-8.4375,-23.0625,29.25,-8.4375,-23.0625,0.06085173965177959,-0.7135868137627459,0.09068572340157946,0.6920021853841333,132.03874028882868,87.01591905887405,-60.26791637178237,0.447265625,0.56829833984375,0.44158935546875,-0.531005859375,132.3702744242083,86.91945432382545,30.291169875059,0.9707095895305006,,,,3,0,3,3
1788937997.8001246,3259305117.0,-9.84765625,0.1875,-0.33984375,-0.021484375,-0.03125,0.03515625,29.25,-8.4375,-23.0625,29.25,-8.4375,-23.0625,0.06082766163168353,-0.7135513482350612,0.09087233774599489,0.6920163923238565,131.79157879838124,87.00441336293741,-60.52836123162574,0.447509765625,0.5682373046875,0.44146728515625,-0.531005859375,131.83386315545394,86.96407058580023,29.754867737257744,0.6404580942187822,,,,3,0,3,3
1788937997.8061414,3259309676.0,-9.84765625,0.22265625,-0.37890625,-0.013671875,-0.03125,0.046875,28.75,-6.625,-23.625,28.75,-6.625,-23.625,0.06090721709536967,-0.7135525888786697,0.0908115531656548,0.6920160949153474,131.92138750774154,87.01357885987646,-60.40005702606182,0.447509765625,0.5682373046875,0.44146728515625,-0.531005859375,131.83386315545394,86.96407058580023,29.754867737257744,0.6464211217584973,,,,3,0,3,3
1788937997.808147,3259312853.0,-9.84375,0.22265625,-0.30078125,-0.013671875,-0.03125,0.046875,28.75,-6.625,-23.625,28.75,-6.625,-23.625,0.06097051537293492,-0.7134956843794757,0.09076188793522734,0.692075707076513,131.8773700537587,87.02652731561854,-60.44514958191965,0.447509765625,0.5682373046875,0.44146728515625,-0.531005859375,131.83386315545394,86.96407058580023,29.754867737257744,0.6517927634865214,,,,3,0,3,3
1788937997.8121574,3259317535.0,-9.8828125,0.22265625,-0.30078125,-0.009765625,-0.03125,0.05078125,28.75,-6.625,-23.625,28.75,-6.625,-23.625,0.06106514831889286,-0.7134107281758125,0.09070275183155958,0.6921626914206163,131.80049121348574,87.04478003513772,-60.52487137053042,0.44769287109375,0.5682373046875,0.4412841796875,-0.53094482421875,131.24948267322046,86.88752749182049,29.19099079470992,1.1286203485317448,,,,3,0,3,3
1788937997.817913,3259321318.0,-9.8828125,0.26171875,-0.30078125,-0.009765625,-0.03125,0.0546875,28.25,-8.9375,-23.25,28.25,-8.9375,-23.25,0.06100246962348861,-0.7133580557227357,0.09094513121574667,0.6921907007057118,131.4276522623112,87.02842926156113,-60.91240652236515,0.44769287109375,0.5682373046875,0.4412841796875,-0.53094482421875,131.24948267322046,86.88752749182049,29.19099079470992,1.1247980174258967,,,,3,0,3,3
1788937997.8208668,3259325025.0,-9.84765625,0.30078125,-0.30078125,0.00390625,-0.029296875,0.0546875,28.25,-8.9375,-23.25,28.25,-8.9375,-23.25,0.060950391344412796,-0.7133067733063934,0.09120114885760366,0.6922144518841234,131.06447843670045,87.01148517257181,-61.2922549555203,0.44793701171875,0.56829833984375,0.44110107421875,-0.5308837890625,130.69406635673573,86.93738750018083,28.621712985792918,0.6861265322477393,,,,3,0,3,3
1788937997.8268816,3259329484.0,-9.80859375,0.30078125,-0.2265625,0.01171875,-0.029296875,0.056640625,28.125,-5.625,-23.3125,28.125,-5.625,-23.3125,0.060941616865040495,-0.713206815093049,0.09112736184913757,0.6923279296410916,130.84582778175596,87.02568164305868,-61.50413445691652,0.44793701171875,0.56829833984375,0.44110107421875,-0.5308837890625,130.69406635673573,86.93738750018083,28.621712985792918,0.6868763779304728,,,,3,0,3,3
1788937997.8268816,3259332860.0,-9.765625,0.33984375,-0.26171875,0.01171875,-0.029296875,0.056640625,28.125,-5.625,-23.3125,28.125,-5.625,-23.3125,0.06092459628112416,-0.7131383571777503,0.0910617346346561,0.6924085770519665,130.69367072959054,87.03578706833841,-61.64952503385148,0.44793701171875,0.56829833984375,0.44110107421875,-0.5308837890625,130.69406635673573,86.93738750018083,28.621712985792918,0.6870139477838477,,,,3,0,3,3
1788937997.8339014,3259336943.0,-9.8046875,0.33984375,-0.26171875,0.009765625,-0.021484375,0.064453125,28.125,-5.625,-23.3125,28.125,-5.625,-23.3125,0.06088924004087548,-0.7130658162634098,0.09099159919927004,0.692495610815694,130.5137189583563,87.04542605018123,-61.82084940009262,0.4481201171875,0.568359375,0.4407958984375,-0.5308837890625,129.96625207280684,86.88721302013279,27.894047105842617,0.9765794314418755,,,,3,0,3,3
1788937997.8385072,3259340526.0,-9.765625,0.33984375,-0.26171875,0.009765625,-0.017578125,0.056640625,32.3125,-6.0625,-27.8125,32.3125,-6.0625,-27.8125,0.06085800560915855,-0.7130196710059512,0.0909100630949425,0.6925565769956374,130.41446868790428,87.05368666803416,-61.910882868153344,0.4481201171875,0.568359375,0.4407958984375,-0.5308837890625,129.96625207280684,86.88721302013279,27.894047105842617,0.9762266840736226,,,,3,0,3,3
1788937997.8425703,3259348209.0,-9.80859375,0.37890625,-0.30078125,0.005859375,-0.017578125,0.06640625,32.3125,-6.0625,-27.8125,32.3125,-6.0625,-27.8125,0.06072904393914288,-0.7129398282795415,0.09073648814741817,0.6926728478824971,130.18535662876786,87.06560142950848,-62.115297543463534,0.44830322265625,0.5684814453125,0.4405517578125,-0.53082275390625,129.41586303063534,86.89010735794906,27.329354634988125,0.8174323286996131,,,,3,0,3,3
1788937997.8424914,3259352892.0,-9.84765625,0.4140625,-0.30078125,0.009765625,-0.017578125,0.06640625,32.3125,-6.0625,-27.8125,32.3125,-6.0625,-27.8125,0.060640726886480416,-0.7128887735365574,0.09063787432382485,0.6927460389971787,130.0235986055503,87.07191905900497,-62.26179887490547,0.44830322265625,0.5684814453125,0.4405517578125,-0.53082275390625,129.41586303063534,86.89010735794906,27.329354634988125,0.8146723803397564,,,,3,0,3,3
1788937997.8513455,3259356298.0,-9.84375,0.453125,-0.33984375,0.00390625,-0.013671875,0.06640625,32.3125,-6.0625,-27.8125,32.3125,-6.0625,-27.8125,0.060550484134386455,-0.712870807638837,0.09055542796767395,0.6927832019853216,129.93703692431936,87.07388263698734,-62.33427712295512,0.448486328125,0.568603515625,0.4403076171875,-0.53076171875,128.87354121653237,86.89278386820044,26.772046483311822,0.616746293191117,,,,3,0,3,3
1788937997.853559,3259360081.0,-9.84765625,0.4921875,-0.30078125,0.01171875,-0.013671875,0.064453125,31.5625,-8.625,-29.1875,31.5625,-8.625,-29.1875,0.06042972371238377,-0.7128208306411055,0.09083605022991743,0.6928084323063606,129.49374346026906,87.05014805586569,-62.79066840478812,0.448486328125,0.568603515625,0.4403076171875,-0.53076171875,128.87354121653237,86.89278386820044,26.772046483311822,0.5977937703682448,,,,3,0,3,3
1788937997.8617914,3259364364.0,-9.88671875,0.53125,-0.30078125,0.013671875,-0.015625,0.05859375,31.5625,-8.625,-29.1875,31.5625,-8.625,-29.1875,0.06029328766358861,-0.712761444096893,0.09114348109433534,0.6928410417445215,129.00010988751572,87.02408117782005,-63.29831476318682,0.44866943359375,0.5687255859375,0.4400634765625,-0.5306396484375,128.30462284407176,86.82264808576193,26.213656139588732,0.952257169818778,,,,3,0,3,3
1788937997.8639517,3259368846.0,-9.92578125,0.5703125,-0.30078125,0.009765625,-0.015625,0.052734375,31.5625,-8.625,-29.1875,31.5625,-8.625,-29.1875,0.060143187877443216,-0.7127004116262912,0.09144567385960263,0.692877051829556,128.50087071596647,86.99743279480244,-63.81002835483793,0.44866943359375,0.5687255859375,0.4400634765625,-0.5306396484375,128.30462284407176,86.82264808576193,26.213656139588732,0.9397281123121036,,,,3,0,3,3
1788937997.8678868,3259372300.0,-9.92578125,0.5703125,-0.30078125,0.009765625,-0.015625,0.052734375,31.1875,-5.6875,-28.5625,31.1875,-5.6875,-28.5625,0.06004848193282203,-0.7126664458333759,0.09136469100415312,0.6929308840270457,128.36752790696357,87.00029329746701,-63.92903992695223,0.44866943359375,0.5687255859375,0.4400634765625,-0.5306396484375,128.30462284407176,86.82264808576193,26.213656139588732,0.9365690007429488,,,,3,0,3,3
1788937997.8694148,3259376206.0,-9.96484375,0.5703125,-0.37890625,0.005859375,-0.013671875,0.048828125,31.1875,-5.6875,-28.5625,31.1875,-5.6875,-28.5625,0.05993580410370561,-0.7126603672345256,0.09125443966860365,0.6929614185511069,128.30846753892823,87.00170803253768,-63.969922129073815,0.44879150390625,0.56884765625,0.43988037109375,-0.5306396484375,127.98530990898828,86.8986408616525,25.852620707669708,0.0,,,,3,0,3,3
1788937997.8694148,3259379789.0,-10.00390625,0.60546875,-0.37890625,0.001953125,-0.01171875,0.041015625,27.4375,-7.125,-24.25,27.4375,-7.125,-24.25,0.059809105633449294,-0.7126486256561754,0.09146035201014756,0.6929572939538707,128.0296231134307,86.9791788543966,-64.2552880775087,0.44879150390625,0.56884765625,0.43988037109375,-0.5306396484375,127.98530990898828,86.8986408616525,25.852620707669708,0.0,,,,3,0,3,3
1788937997.8814712,3259384171.0,-9.9609375,0.64453125,-0.41796875,-0.005859375,-0.017578125,0.029296875,27.4375,-7.125,-24.25,27.4375,-7.125,-24.25,0.059657315817954505,-0.7126413088255164,0.0916708315622567,0.6929500907464665,127.7401726077715,86.95421115409218,-64.54959442629784,0.44891357421875,0.56890869140625,0.439697265625,-0.53057861328125,127.55750216501924,86.83399769508001,25.4377186960533,0.5735548339685701,,,,3,0,3,3
1788937997.879518,3259388325.0,-9.96484375,0.60546875,-0.41796875,-0.005859375,-0.017578125,0.029296875,27.4375,-7.125,-24.25,27.4375,-7.125,-24.25,0.05952122735041256,-0.7126393593696904,0.09186942690094055,0.6929374974503475,127.49121658277981,86.93062224910595,-64.80371417600819,0.44891357421875,0.56890869140625,0.439697265625,-0.53057861328125,127.55750216501924,86.83399769508001,25.4377186960533,0.5574186386046955,,,,3,0,3,3
1788937997.8857405,3259391331.0,-9.96484375,0.60546875,-0.41796875,-0.009765625,-0.025390625,0.029296875,28.0,-6.375,-22.375,28.0,-6.375,-22.375,0.059399980506636606,-0.7126383349857719,0.0919886954684561,0.6929331322216666,127.30722644062757,86.913815007853,-64.9875916689092,0.44891357421875,0.56890869140625,0.439697265625,-0.53057861328125,127.55750216501924,86.83399769508001,25.4377186960533,0.5450789416340677,,,,3,0,3,3
1788937997.8857405,3259395814.0,-9.96484375,0.60546875,-0.41796875,-0.015625,-0.025390625,0.01953125,28.0,-6.375,-22.375,28.0,-6.375,-22.375,0.05922478533499038,-0.7126405116546713,0.09214051458482943,0.6929257186182622,127.06588381926689,86.89070250054249,-65.22709582070767,0.44903564453125,0.56884765625,0.4395751953125,-0.53057861328125,127.13527623626166,86.76518789712368,25.044115120447646,1.080352564974293,,,,3,0,3,3
1788937997.8837874,3259399720.0,-9.96484375,0.5703125,-0.41796875,-0.013671875,-0.03125,0.015625,28.0,-6.375,-22.375,28.0,-6.375,-22.375,0.0590901819332847,-0.7126441556852747,0.0922618303272711,0.6929173200544023,126.88548582266034,86.87238905407622,-65.40646419387227,0.44903564453125,0.56884765625,0.4395751953125,-0.53057861328125,127.13527623626166,86.76518789712368,25.044115120447646,1.0741444085593894,,,,3,0,3,3
1788937997.9022102,3259407779.0,-9.92578125,0.53125,-0.37890625,-0.01953125,-0.03125,0.017578125,28.4375,-7.625,-23.8125,28.4375,-7.625,-23.8125,0.05889858580253451,-0.7125837407087158,0.09261643059280643,0.6929484582941816,126.36666666127942,86.83799565255626,-65.93867449122168,0.44921875,0.56878662109375,0.43951416015625,-0.53057861328125,126.79803952347366,86.80747321501741,24.701756001916785,0.7747609646031967,,,,3,0,3,3
1788937997.9022102,3259411162.0,-9.8828125,0.53125,-0.33984375,-0.021484375,-0.02734375,0.01171875,28.875,-5.0625,-22.4375,28.875,-5.0625,-22.4375,0.05884476712835068,-0.7125595284924465,0.09243814566820038,0.6930017322934027,126.35081327633141,86.84987495897067,-65.93556965899855,0.44921875,0.56878662109375,0.43951416015625,-0.53057861328125,126.79803952347366,86.80747321501741,24.701756001916785,0.7735407420354464,,,,3,0,3,3
1788937997.9022102,3259414868.0,-9.88671875,0.53125,-0.30078125,-0.017578125,-0.033203125,0.0078125,28.875,-5.0625,-22.4375,28.875,-5.0625,-22.4375,0.05879838448953315,-0.7125087675408971,0.09224976209465549,0.6930829586364481,126.27809507635024,86.86520338924487,-65.98910300118334,0.4493408203125,0.5687255859375,0.439453125,-0.5306396484375,126.53647287744106,86.86677751407028,24.423379506159087,0.0,,,,3,0,3,3
1788937997.9022102,3259419528.0,-9.8828125,0.53125,-0.26171875,-0.01953125,-0.04296875,0.013671875,29.0,-6.4375,-22.25,29.0,-6.4375,-22.25,0.0586426282412604,-0.7123586629750394,0.0923869344472975,0.6932321629734172,125.67771059495313,86.85668167257269,-66.58799751148992,0.4493408203125,0.5687255859375,0.439453125,-0.5306396484375,126.53647287744106,86.86677751407028,24.423379506159087,0.0,,,,3,0,3,3
1788937997.918592,3259422804.0,-9.84765625,0.53125,-0.30078125,-0.01953125,-0.04296875,0.013671875,29.0,-6.4375,-22.25,29.0,-6.4375,-22.25,0.05851576061362707,-0.7122834221080027,0.09250551243221179,0.6933043794175654,125.31045140388858,86.84520235155703,-66.95461478773137,0.4493408203125,0.5687255859375,0.439453125,-0.5306396484375,126.53647287744106,86.86677751407028,24.423379506159087,0.0,,,,3,0,3,3
1788937997.9171968,3259427887.0,-9.88671875,0.5703125,-0.26171875,-0.01953125,-0.03125,0.005859375,29.0,-6.4375,-22.25,29.0,-6.4375,-22.25,0.05833791998672856,-0.7121543546059484,0.09264802019795294,0.6934329143189027,124.75037395361831,86.83255951802947,-67.51184917811476,0.44952392578125,0.568603515625,0.4393310546875,-0.53070068359375,126.0210475007517,86.85740369478637,23.92109470624722,0.3412232044634513,,,,3,0,3,3
1788937997.9191499,3259430693.0,-9.84765625,0.60546875,-0.2265625,-0.017578125,-0.033203125,0.001953125,29.0,-6.4375,-22.25,29.0,-6.4375,-22.25,0.05824930639801267,-0.7120748657720022,0.09271413691673573,0.6935131524749334,124.43576136980047,86.82770362973076,-67.82464211977798,0.44952392578125,0.568603515625,0.4393310546875,-0.53070068359375,126.0210475007517,86.85740369478637,23.92109470624722,0.3344926280492292,,,,3,0,3,3
1788937997.9357069,3259434300.0,-9.84765625,0.60546875,-0.1875,-0.021484375,-0.029296875,-0.00390625,29.0,-6.4375,-22.25,29.0,-6.4375,-22.25,0.05815196544320748,-0.711967771246867,0.09276886901292587,0.6936239460708687,124.04800895578803,86.8251533163893,-68.208928407662,0.44964599609375,0.5684814453125,0.4393310546875,-0.53070068359375,125.77102988796867,86.83417547602247,23.697032506240692,0.7017733842060532,,,,3,0,3,3
1788937997.9317138,3259438829.0,-9.84765625,0.60546875,-0.1875,-0.021484375,-0.029296875,-0.00390625,29.0,-6.4375,-22.25,29.0,-6.4375,-22.25,0.05802926474449178,-0.7118334046411356,0.09283758693302382,0.6937629212653817,123.56202278902664,86.82170426367449,-68.69052387559617,0.44964599609375,0.5684814453125,0.4393310546875,-0.53070068359375,125.77102988796867,86.83417547602247,23.697032506240692,0.6989858503548042,,,,3,0,3,3
1788937997.9357069,3259443212.0,-9.8046875,0.64453125,-0.1484375,-0.015625,-0.021484375,-0.005859375,32.5625,-6.6875,-28.5625,32.5625,-6.6875,-28.5625,0.05794286851857253,-0.7117291911564885,0.09270506633661954,0.6938947709264663,123.27699880776687,86.83380240253318,-68.95766485875805,0.44964599609375,0.5684814453125,0.4393310546875,-0.53070068359375,125.77102988796867,86.83417547602247,23.697032506240692,0.6983977628039586,,,,3,0,3,3
1788937997.9357069,3259446918.0,-9.8046875,0.64453125,-0.109375,-0.017578125,-0.0234375,-0.009765625,32.5625,-6.6875,-28.5625,32.5625,-6.6875,-28.5625,0.05788061600088453,-0.711634309091906,0.09259414787112273,0.6940120807267438,123.02475757618667,86.84513474590949,-69.19575518975005,0.44970703125,0.568359375,0.4393310546875,-0.53076171875,125.59411559395208,86.82738051651184,23.535240014016967,0.8577421396267217,,,,3,0,3,3
1788937997.945529,3259450025.0,-9.765625,0.64453125,-0.1484375,-0.015625,-0.01953125,-0.01953125,30.5625,-7.6875,-29.25,30.5625,-7.6875,-29.25,0.057813424298835105,-0.7115512862785529,0.0925919246937977,0.694103097851953,122.75010117769357,86.84678930734148,-69.46474786691174,0.44970703125,0.568359375,0.4393310546875,-0.53076171875,125.59411559395208,86.82738051651184,23.535240014016967,0.8576409055632822,,,,3,0,3,3
1788937997.951231,3259454607.0,-9.76953125,0.60546875,-0.109375,-0.009765625,-0.009765625,-0.0234375,30.5625,-7.6875,-29.25,30.5625,-7.6875,-29.25,0.057761227950398154,-0.7114360099977965,0.09256427395491605,0.6942292844667938,122.41208297412915,86.85373412452651,-69.79623638782226,0.44970703125,0.5682373046875,0.4393310546875,-0.53082275390625,125.45773592427909,86.7656418374429,23.434209739761982,1.305255784941443,,,,3,0,3,3
1788937997.9527326,3259458360.0,-9.8046875,0.64453125,-0.1484375,-0.009765625,-0.009765625,-0.0234375,30.5625,-7.6875,-29.25,30.5625,-7.6875,-29.25,0.057690549541041226,-0.7113486782464779,0.09256534512025619,0.6943245029043765,122.12069559018262,86.85503877753483,-70.08194548971254,0.44970703125,0.5682373046875,0.4393310546875,-0.53082275390625,125.45773592427909,86.7656418374429,23.434209739761982,1.3055626085193932,,,,3,0,3,3
1788937997.9527326,3259462143.0,-9.84765625,0.60546875,-0.2265625,-0.01171875,-0.00390625,-0.025390625,31.4375,-8.75,-29.9375,31.4375,-8.75,-29.9375,0.05763656807467,-0.7113075759536157,0.09268089582270744,0.6943556797211827,121.91816381912088,86.84523941182294,-70.2895252560348,0.44970703125,0.5682373046875,0.4393310546875,-0.53082275390625,125.45773592427909,86.7656418374429,23.434209739761982,1.3051892607174016,,,,3,0,3,3
1788937997.9527326,3259465850.0,-9.84375,0.64453125,-0.2265625,-0.01171875,-0.001953125,-0.025390625,31.4375,-8.75,-29.9375,31.4375,-8.75,-29.9375,0.057574471080065734,-0.7112724610063984,0.09279150225014206,0.6943820300122361,121.72866691427934,86.83478908119672,-70.48300755731381,0.44970703125,0.56817626953125,0.439453125,-0.5308837890625,125.66717815577955,86.88392868778897,23.606709115743982,0.5935391214143663,,,,3,0,3,3
1788937997.9658124,3259470432.0,-9.88671875,0.5703125,-0.2265625,-0.017578125,0.00390625,-0.029296875,31.4375,-8.75,-29.9375,31.4375,-8.75,-29.9375,0.05751874722875603,-0.7112315899149995,0.09291967989593249,0.6944113710994757,121.52283121483013,86.8237881696583,-70.69478242632454,0.44970703125,0.56817626953125,0.439453125,-0.5308837890625,125.66717815577955,86.88392868778897,23.606709115743982,0.5939243003455451,,,,3,0,3,3
1788937997.9693892,3259473815.0,-9.92578125,0.53125,-0.26171875,-0.033203125,0.005859375,-0.033203125,32.0,-7.0625,-27.9375,32.0,-7.0625,-27.9375,0.057473707010037095,-0.7112229759508393,0.09270228070055786,0.6944529779870421,121.55412355390116,86.83815368580424,-70.64205312371237,0.44970703125,0.56805419921875,0.4395751953125,-0.5308837890625,125.76037239227266,86.86310887862975,23.727354443524618,0.874048953538579,,,,3,0,3,3
1788937997.967462,3259479098.0,-9.8828125,0.4921875,-0.33984375,-0.03125,0.0078125,-0.04296875,32.0,-7.0625,-27.9375,32.0,-7.0625,-27.9375,0.05746197749499522,-0.7113279780100582,0.09232266249225411,0.694396972079248,121.98684960205928,86.85937331973567,-70.177362451736,0.44970703125,0.56805419921875,0.4395751953125,-0.5308837890625,125.76037239227266,86.86310887862975,23.727354443524618,0.8703555976144023,,,,3,0,3,3
1788937997.9693892,3259481951.0,-9.92578125,0.453125,-0.26171875,-0.03125,0.0078125,-0.04296875,28.4375,-7.625,-24.125,28.4375,-7.625,-24.125,0.0574687605924657,-0.7113313343907308,0.09239022030783675,0.6943839870427151,121.97239326702321,86.85436313365753,-70.19789356313984,0.44970703125,0.56805419921875,0.4395751953125,-0.5308837890625,125.76037239227266,86.86310887862975,23.727354443524618,0.8702612902797476,,,,3,0,3,3
1788937997.9712715,3259488434.0,-9.96484375,0.4140625,-0.30078125,-0.04296875,0.01171875,-0.04296875,28.4375,-7.625,-24.125,28.4375,-7.625,-24.125,0.05749708934017905,-0.7113927503472304,0.0925018349020999,0.6943038599997521,122.1119303333753,86.84327159887343,-70.06979705926236,0.44964599609375,0.56793212890625,0.4398193359375,-0.5308837890625,126.16167501652767,86.90133263273539,24.137388306293495,0.6934822565210405,,,,3,0,3,3
1788937997.9777493,3259489287.0,-9.9609375,0.33984375,-0.30078125,-0.0390625,0.015625,-0.033203125,28.4375,-7.625,-24.125,28.4375,-7.625,-24.125,0.05751255578046821,-0.7114031422969634,0.09251559248635295,0.6942900980170348,122.1461438449686,86.84253661819493,-70.0379680373027,0.44964599609375,0.56793212890625,0.4398193359375,-0.5308837890625,126.16167501652767,86.90133263273539,24.137388306293495,0.6936175236171934,,,,3,0,3,3
1788937997.9799087,3259493717.0,-10.00390625,0.30078125,-0.30078125,-0.0390625,0.015625,-0.033203125,28.4375,-7.625,-24.125,28.4375,-7.625,-24.125,0.05763335967281644,-0.7114610236260314,0.09255795663252776,0.6942151196695693,122.37904717752976,86.84349396368337,-69.81836336260952,0.44964599609375,0.56793212890625,0.4398193359375,-0.5308837890625,126.16167501652767,86.90133263273539,24.137388306293495,0.695513165668483,,,,3,0,3,3
1788937997.9863865,3259497223.0,-9.92578125,0.1875,-0.30078125,-0.046875,0.01953125,-0.03515625,28.4375,-7.625,-24.125,28.4375,-7.625,-24.125,0.05777322744074514,-0.7115190996408604,0.09249609407436625,0.6941522150208306,122.67411651003184,86.8537730276027,-69.52962285317047,0.44964599609375,0.56781005859375,0.4400634765625,-0.53082275390625,126.48941178536327,86.92327756230624,24.485203365326793,0.5886977156561484,,,,3,0,3,3
1788937997.9863865,3259501206.0,-9.921875,0.1484375,-0.30078125,-0.0390625,0.017578125,-0.03125,27.5625,-6.0,-23.0625,27.5625,-6.0,-23.0625,0.05787154802433902,-0.7115710920273627,0.09223767307773581,0.6941251159448546,123.00995457242247,86.87671197687516,-69.18066631697017,0.44964599609375,0.56781005859375,0.4400634765625,-0.53082275390625,126.48941178536327,86.92327756230624,24.485203365326793,0.5885290090360918,,,,3,0,3,3
1788937998.0023448,3259504912.0,-9.96484375,0.109375,-0.30078125,-0.0390625,0.01953125,-0.021484375,27.5625,-6.0,-23.0625,27.5625,-6.0,-23.0625,0.05795335299709347,-0.7116198853870611,0.09201259183874388,0.6940981418655556,123.31295515426514,86.8960680105419,-68.86592987693103,0.44964599609375,0.56768798828125,0.44024658203125,-0.53076171875,126.68648475727836,86.8869536048816,24.72047416369208,0.9527812591415951,,,,3,0,3,3
1788937998.0023448,3259509371.0,-9.96484375,0.109375,-0.30078125,-0.033203125,0.013671875,-0.009765625,29.375,-9.3125,-22.5,29.375,-9.3125,-22.5,0.05798186875296139,-0.711664945226232,0.09214452119141271,0.694032056785898,123.39630178284207,86.88448984012726,-68.79569608390109,0.44964599609375,0.56768798828125,0.44024658203125,-0.53076171875,126.68648475727836,86.8869536048816,24.72047416369208,0.9531357066183669,,,,3,0,3,3
1788937998.0023448,3259513525.0,-9.92578125,0.0703125,-0.30078125,-0.033203125,0.013671875,-0.009765625,29.375,-9.3125,-22.5,29.375,-9.3125,-22.5,0.05802111890949605,-0.7117085556225378,0.09226158367054763,0.69396850201776,123.49114886084665,86.87489713980624,-68.71361952483761,0.44964599609375,0.56768798828125,0.44024658203125,-0.53076171875,126.68648475727836,86.8869536048816,24.72047416369208,0.954076241440213,,,,3,0,3,3
1788937998.0023448,3259516631.0,-9.8828125,0.109375,-0.33984375,-0.0078125,0.015625,-0.005859375,29.375,-9.3125,-22.5,29.375,-9.3125,-22.5,0.05806286847053745,-0.7117457614968474,0.09238062629714522,0.693911013157446,123.56960096384903,86.86580061960854,-68.64830196493045,0.44964599609375,0.567626953125,0.44036865234375,-0.53070068359375,126.83492201548528,86.86141650738872,24.893465316721848,1.126597274477184,,,,3,0,3,3
1788937998.0170536,3259525296.0,-9.84375,0.30078125,-0.2265625,0.0,0.0078125,0.013671875,28.625,-7.75,-24.75,28.625,-7.75,-24.75,0.05828708926632919,-0.7116601435840652,0.09273592975547142,0.693932635484998,123.36310959798219,86.86035564791955,-68.90205420801934,0.44964599609375,0.56768798828125,0.44036865234375,-0.5306396484375,126.883537191708,86.856695166737,24.94013871770165,1.113668210162118,,,,3,0,3,3
1788937998.0150716,3259528703.0,-9.84375,0.37890625,-0.1484375,0.001953125,0.005859375,0.009765625,28.625,-7.75,-24.75,28.625,-7.75,-24.75,0.05831422327917662,-0.7115928627472465,0.09286462075032469,0.6939821404498987,123.14738380190573,86.85734389377815,-69.13049266271068,0.44964599609375,0.56768798828125,0.44036865234375,-0.5306396484375,126.883537191708,86.856695166737,24.94013871770165,1.1176809404629775,,,,3,0,3,3
1788937998.0190067,3259532456.0,-9.80859375,0.4140625,-0.1875,0.001953125,0.005859375,0.009765625,29.25,-7.4375,-22.625,29.25,-7.4375,-22.625,0.058309781085759384,-0.7115418138566048,0.09305004271398937,0.6940100187420268,122.92428690310014,86.84651198798903,-69.36837635738783,0.44964599609375,0.56768798828125,0.44036865234375,-0.5306396484375,126.883537191708,86.856695166737,24.94013871770165,1.1215270880981887,,,,3,0,3,3
1788937998.0317204,3259538239.0,-9.80859375,0.4921875,-0.1875,-0.001953125,0.009765625,0.015625,29.25,-7.4375,-22.625,29.25,-7.4375,-22.625,0.05822633205996539,-0.7114789805043598,0.09334375254412997,0.6940420004699283,122.56088232627414,86.82261397120543,-69.74899438262162,0.44964599609375,0.5677490234375,0.44036865234375,-0.53057861328125,126.93185949267648,86.85196535300193,24.986537525128707,1.1005750785849535,,,,3,0,3,3
1788937998.0357134,3259540745.0,-9.76953125,0.53125,-0.2265625,0.00390625,0.017578125,0.01171875,29.25,-7.4375,-22.625,29.25,-7.4375,-22.625,0.05818722136908225,-0.7114703358973675,0.09347778431766096,0.6940361029849192,122.44910521436958,86.81013593823975,-69.86854781818842,0.44964599609375,0.5677490234375,0.44036865234375,-0.53057861328125,126.93185949267648,86.85196535300193,24.986537525128707,1.1023357676246728,,,,3,0,3,3
1788937998.039837,3259544251.0,-9.76953125,0.53125,-0.1875,-0.001953125,0.017578125,0.01171875,29.25,-7.4375,-22.625,29.25,-7.4375,-22.625,0.05812850923858154,-0.7114439663934659,0.09365031106835352,0.6940447956240533,122.25987286522268,86.7945710596059,-70.067106479818,0.44964599609375,0.56787109375,0.4403076171875,-0.530517578125,126.93029456370928,86.85752828764342,24.969958674453505,0.9776624520507365,,,,3,0,3,3
1788937998.0450919,3259548534.0,-9.76953125,0.53125,-0.26171875,-0.001953125,0.021484375,0.005859375,29.25,-7.4375,-22.625,29.25,-7.4375,-22.625,0.058060417841326394,-0.7114536669924414,0.09386527309683655,0.694011511510836,122.14230665034104,86.77242547879113,-70.1967145514374,0.44964599609375,0.56787109375,0.4403076171875,-0.530517578125,126.93029456370928,86.85752828764342,24.969958674453505,0.9806394565132681,,,,3,0,3,3
1788937998.0490415,3259552187.0,-9.80859375,0.53125,-0.26171875,-0.001953125,0.021484375,0.005859375,31.8125,-6.75,-29.0,31.8125,-6.75,-29.0,0.05802282287284141,-0.7114676039164598,0.09370615243064638,0.6940218711250266,122.21568537612701,86.78115124770291,-70.10727066070062,0.44964599609375,0.56787109375,0.4403076171875,-0.530517578125,126.93029456370928,86.85752828764342,24.969958674453505,0.9748786176881333,,,,3,0,3,3
1788937998.0518563,3259555893.0,-9.8046875,0.53125,-0.30078125,-0.005859375,0.0234375,0.015625,31.8125,-6.75,-29.0,31.8125,-6.75,-29.0,0.05796161057190018,-0.7115020079709062,0.09354345733017785,0.6940136640902663,122.3262846892024,86.78701740431407,-69.97839826459426,0.44964599609375,0.56793212890625,0.44036865234375,-0.53045654296875,127.10910216062841,86.91057029757654,25.12966443319901,0.42193266714394273,,,,3,0,3,3
1788937998.0518563,3259559676.0,-9.80859375,0.5703125,-0.30078125,-0.01171875,0.025390625,0.015625,32.0,-5.9375,-29.875,32.0,-5.9375,-29.875,0.0578921411974882,-0.7115406982039724,0.09336999184918356,0.6940031551866727,122.44670885476249,86.79281550158625,-69.83815034346499,0.44964599609375,0.56793212890625,0.44036865234375,-0.53045654296875,127.10910216062841,86.91057029757654,25.12966443319901,0.4051766974070005,,,,3,0,3,3
1788937998.0518563,3259564059.0,-9.84765625,0.5703125,-0.33984375,-0.021484375,0.01953125,0.017578125,32.0,-5.9375,-29.875,32.0,-5.9375,-29.875,0.0577928359657174,-0.7115908129164586,0.09315366863458235,0.6939891188655999,122.592470395387,86.79900217392706,-69.66663789039029,0.44964599609375,0.5679931640625,0.44036865234375,-0.53033447265625,127.12227267643277,86.83296212609126,25.169435368801352,0.9719177702784728,,,,3,0,3,3
1788937998.0605419,3259569042.0,-9.88671875,0.5703125,-0.33984375,-0.013671875,0.025390625,0.017578125,32.0,-5.9375,-29.875,32.0,-5.9375,-29.875,0.05769235915978465,-0.7116560866437712,0.09292215094169413,0.6939615838804195,122.78454411036229,86.80513839180803,-69.44747992202531,0.44964599609375,0.5679931640625,0.44036865234375,-0.53033447265625,127.12227267643277,86.83296212609126,25.169435368801352,0.9633038916088597,,,,3,0,3,3
1788937998.0649688,3259571118.0,-9.88671875,0.5703125,-0.37890625,-0.013671875,0.025390625,0.017578125,31.625,-7.5625,-28.4375,31.625,-7.5625,-28.4375,0.057600924490469094,-0.7117131022531146,0.09294248742979659,0.6939079820908917,122.85215021644746,86.79301513514929,-69.37411390269546,0.44964599609375,0.5679931640625,0.44036865234375,-0.53033447265625,127.12227267643277,86.83296212609126,25.169435368801352,0.9592361832059368,,,,3,0,3,3
1788937998.0727053,3259576001.0,-9.88671875,0.53125,-0.453125,-0.021484375,0.017578125,0.017578125,31.625,-7.5625,-28.4375,31.625,-7.5625,-28.4375,0.0574653928680458,-0.7118617964177628,0.0929352413486134,0.6937676501097985,123.1347221779968,86.77314622460814,-69.07996192195007,0.44970703125,0.56805419921875,0.4404296875,-0.53021240234375,127.22159084633866,86.86916052198677,25.26079940304451,0.5274426542014051,,,,3,0,3,3
1788937998.0727053,3259579684.0,-9.921875,0.453125,-0.453125,-0.029296875,0.013671875,0.01953125,29.375,-8.6875,-24.4375,29.375,-8.6875,-24.4375,0.05739164965663089,-0.7119134880803903,0.09307766685146925,0.693701615950539,123.14704537940912,86.75320057410555,-69.07329826951329,0.44970703125,0.56805419921875,0.4404296875,-0.53021240234375,127.22159084633866,86.86916052198677,25.26079940304451,0.5252246538346271,,,,3,0,3,3
1788937998.0824506,3259583690.0,-9.921875,0.4140625,-0.4921875,-0.037109375,0.01171875,0.0234375,29.375,-8.6875,-24.4375,29.375,-8.6875,-24.4375,0.057305496094407306,-0.7119771688450186,0.09321413360476302,0.6936250546636267,123.18283049062295,86.73195872454714,-69.04167958418377,0.4498291015625,0.56805419921875,0.44049072265625,-0.530029296875,127.1629091840099,86.8216932049181,25.234738837968077,0.8305377271474725,,,,3,0,3,3
1788937998.0824506,3259587343.0,-9.92578125,0.4140625,-0.41796875,-0.037109375,0.01171875,0.0234375,29.375,-8.6875,-24.4375,29.375,-8.6875,-24.4375,0.05722976497769143,-0.7120216638256676,0.09335488833115203,0.6935667012394732,123.17571007385277,86.71253840738201,-69.05416058413711,0.4498291015625,0.56805419921875,0.44049072265625,-0.530029296875,127.1629091840099,86.8216932049181,25.234738837968077,0.8300418487695682,,,,3,0,3,3
1788937998.0856302,3259591126.0,-9.8828125,0.4140625,-0.41796875,-0.037109375,0.009765625,0.029296875,28.9375,-5.4375,-22.125,28.9375,-5.4375,-22.125,0.05717955289067709,-0.7120863952664394,0.0931769719057351,0.6935283096703033,123.37851402020084,86.71793160983026,-68.83274192392986,0.4498291015625,0.56805419921875,0.44049072265625,-0.530029296875,127.1629091840099,86.8216932049181,25.234738837968077,0.8226087315509488,,,,3,0,3,3
1788937998.0856302,3259595609.0,-9.921875,0.37890625,-0.37890625,-0.025390625,0.001953125,0.03125,28.9375,-5.4375,-22.125,28.9375,-5.4375,-22.125,0.0571540873442919,-0.7121282238650853,0.09297836089090608,0.6935141148387972,123.55263570861129,86.72830907806208,-68.64032103333132,0.449951171875,0.56805419921875,0.44049072265625,-0.5299072265625,127.00947983026603,86.789670464013,25.102785722563326,0.966120107142589,,,,3,0,3,3
1788937998.083677,3259599015.0,-9.88671875,0.37890625,-0.33984375,-0.025390625,-0.001953125,0.03515625,28.9375,-5.4375,-22.125,28.9375,-5.4375,-22.125,0.057131547084860304,-0.7121409811918288,0.09282920868557519,0.6935228527234265,123.6337760421202,86.73726230933806,-68.54515674142242,0.449951171875,0.56805419921875,0.44049072265625,-0.5299072265625,127.00947983026603,86.789670464013,25.102785722563326,0.9629699796008839,,,,3,0,3,3
1788937998.1027677,3259603498.0,-9.88671875,0.33984375,-0.33984375,-0.021484375,-0.009765625,0.046875,28.5625,-5.0625,-22.5,28.5625,-5.0625,-22.5,0.05708817914684189,-0.7121392896964256,0.09265581352779104,0.6935513478408586,123.67255820463903,86.74773821925149,-68.48867218012631,0.45013427734375,0.568115234375,0.4404296875,-0.52978515625,126.76653224464671,86.82294076792883,24.850826305434563,0.5105908593282457,,,,3,0,3,3
1788937998.09374,3259608781.0,-9.84765625,0.30078125,-0.30078125,-0.021484375,-0.00390625,0.041015625,28.5625,-5.0625,-22.5,28.5625,-5.0625,-22.5,0.05705599544044344,-0.712135576710972,0.09244620261280474,0.6935857794024496,123.73204506978556,86.76191467814266,-68.40943174782868,0.45013427734375,0.568115234375,0.4404296875,-0.52978515625,126.76653224464671,86.82294076792883,24.850826305434563,0.5052808522203146,,,,3,0,3,3
1788937998.0988326,3259619093.0,-9.84375,0.30078125,-0.26171875,-0.013671875,-0.009765625,0.0546875,28.9375,-6.5,-22.5625,28.9375,-6.5,-22.5625,0.05719924821267283,-0.7120174586369562,0.09229757157352995,0.6937150300243642,123.6107860963454,86.79217253126212,-68.53016176741069,0.4503173828125,0.568115234375,0.4403076171875,-0.5296630859375,126.31896810741667,86.73388334858262,24.441860529561506,1.1059337278369472,,,,3,0,3,3
1788937998.1188571,3259622700.0,-9.84765625,0.33984375,-0.26171875,-0.009765625,-0.009765625,0.046875,28.4375,-7.625,-23.75,28.4375,-7.625,-23.75,0.057200541043699434,-0.7119771358427384,0.09250883977964992,0.6937281677314986,123.41117749098827,86.77906295274671,-68.74713709467511,0.4503173828125,0.568115234375,0.4403076171875,-0.5296630859375,126.31896810741667,86.73388334858262,24.441860529561506,1.107808042676301,,,,3,0,3,3
1788937998.122002,3259626206.0,-9.80859375,0.30078125,-0.26171875,-0.01171875,-0.015625,0.060546875,28.4375,-7.625,-23.75,28.4375,-7.625,-23.75,0.05721900737044038,-0.7119319023684733,0.09270806849639471,0.6937464707090162,123.21971819542429,86.76839104222027,-68.95637485376189,0.4505615234375,0.5682373046875,0.44012451171875,-0.529541015625,125.86984201780301,86.77494650366474,23.969130096542983,0.5929409350574091,,,,3,0,3,3
1788937998.1278465,3259630389.0,-9.84765625,0.33984375,-0.26171875,0.009765625,-0.005859375,0.06640625,28.125,-6.75,-21.6875,28.125,-6.75,-21.6875,0.057299253288244055,-0.7118683250178287,0.09294355476779255,0.6937735790847378,123.01544817886503,86.76052094075817,-69.18640757267464,0.4505615234375,0.5682373046875,0.44012451171875,-0.529541015625,125.86984201780301,86.77494650366474,23.969130096542983,0.6037362393027784,,,,3,0,3,3
1788937998.1333954,3259634871.0,-9.8046875,0.37890625,-0.2265625,0.013671875,-0.0078125,0.0703125,28.125,-6.75,-21.6875,28.125,-6.75,-21.6875,0.057310718655410126,-0.7117533238442239,0.09322264106857629,0.693853173745065,122.60656162466282,86.74822974368551,-69.61901820397017,0.45068359375,0.568359375,0.43988037109375,-0.52947998046875,125.41573634709444,86.72170788595193,23.516852094169675,0.8839703214994717,,,,3,0,3,3
1788937998.131866,3259639354.0,-9.84375,0.4140625,-0.2265625,0.015625,-0.009765625,0.078125,28.125,-6.75,-21.6875,28.125,-6.75,-21.6875,0.05727226868806313,-0.7116333038846149,0.09353933517131291,0.6939368276848393,122.13417265196297,86.72971314102998,-70.11414772311011,0.45068359375,0.568359375,0.43988037109375,-0.52947998046875,125.41573634709444,86.72170788595193,23.516852094169675,0.8898527194102605,,,,3,0,3,3
1788937998.135801,3259642031.0,-9.84375,0.4140625,-0.2265625,0.015625,-0.009765625,0.078125,31.625,-7.125,-28.375,31.625,-7.125,-28.375,0.05724386332325468,-0.7115929111625455,0.09351508326585642,0.6939838601126269,122.01778200208189,86.73251182502568,-70.22623684032237,0.45068359375,0.568359375,0.43988037109375,-0.52947998046875,125.41573634709444,86.72170788595193,23.516852094169675,0.8894307682643887,,,,3,0,3,3
1788937998.135801,3259645737.0,-9.80859375,0.4140625,-0.2265625,0.015625,-0.00390625,0.078125,31.625,-7.125,-28.375,31.625,-7.125,-28.375,0.05720320723954051,-0.7115451138986085,0.09348146842075411,0.6940407473847814,121.87642140578762,86.73569492934173,-70.36153268708222,0.45086669921875,0.56854248046875,0.43963623046875,-0.52935791015625,124.97931299174152,86.71773895239805,23.06108233609233,0.6429506914397535,,,,3,0,3,3
1788937998.148477,3259650296.0,-9.80859375,0.453125,-0.26171875,0.0234375,-0.009765625,0.0859375,32.375,-7.8125,-29.6875,32.375,-7.8125,-29.6875,0.057144137595722316,-0.7114724042750216,0.09346440016243403,0.6941224469759193,121.64937786193387,86.73804285309066,-70.58236187708133,0.45086669921875,0.56854248046875,0.43963623046875,-0.52935791015625,124.97931299174152,86.71773895239805,23.06108233609233,0.6421514880150244,,,,3,0,2,3
1788937998.1522436,3259653903.0,-9.80859375,0.4140625,-0.2265625,0.0234375,-0.005859375,0.08984375,32.375,-7.8125,-29.6875,32.375,-7.8125,-29.6875,0.05711391593820554,-0.7114083605776482,0.09347339472438586,0.6941893614750413,121.45614300555955,86.73973178321904,-70.773861038524,0.4510498046875,0.5687255859375,0.43927001953125,-0.52923583984375,124.30615690896212,86.60523190065949,22.40701906354814,1.2005818274199818,,,,3,0,2,3
1788937998.1557598,3259658785.0,-9.84765625,0.37890625,-0.2265625,0.021484375,-0.00390625,0.095703125,32.375,-7.8125,-29.6875,32.375,-7.8125,-29.6875,0.05708220280221855,-0.711335787086671,0.09348580763665845,0.6942646641616974,121.23799304207847,86.74160613504003,-70.99043183726033,0.4510498046875,0.5687255859375,0.43927001953125,-0.52923583984375,124.30615690896212,86.60523190065949,22.40701906354814,1.2013135733968234,,,,3,0,2,3
1788937998.1588795,3259661839.0,-9.84765625,0.37890625,-0.2265625,0.021484375,-0.00390625,0.095703125,32.0625,-9.3125,-30.25,32.0625,-9.3125,-30.25,0.057074109424724316,-0.7112797518012163,0.09374043085410443,0.6942884071725969,120.98751370800119,86.7250365643952,-71.26106039826524,0.4510498046875,0.5687255859375,0.43927001953125,-0.52923583984375,124.30615690896212,86.60523190065949,22.40701906354814,1.2036362963456162,,,,3,0,2,3
1788937998.1625926,3259665721.0,-9.88671875,0.4140625,-0.30078125,0.025390625,-0.005859375,0.107421875,32.0625,-9.3125,-30.25,32.0625,-9.3125,-30.25,0.05701909803595196,-0.7112591335456001,0.09409691244924827,0.6942658269529385,120.75930451813207,86.69467583233893,-71.51394153901211,0.4512939453125,0.5689697265625,0.43896484375,-0.529052734375,123.78478547263926,86.59469415430445,21.86297444925942,0.9960956752575671,,,,3,0,2,3
1788937998.1666071,3259669828.0,-9.8828125,0.4140625,-0.37890625,0.02734375,-0.005859375,0.111328125,32.0625,-9.3125,-30.25,32.0625,-9.3125,-30.25,0.05694438792265252,-0.7112812630879182,0.09443609832746805,0.6942032301832474,120.63742870628627,86.66130466793322,-71.65748433829731,0.4512939453125,0.5689697265625,0.43896484375,-0.529052734375,123.78478547263926,86.59469415430445,21.86297444925942,0.9949736503169974,,,,3,0,2,3
1788937998.172038,3259677110.0,-9.84375,0.4921875,-0.33984375,0.03125,-0.013671875,0.1171875,31.0,-9.0,-28.6875,31.0,-9.0,-28.6875,0.056728120339549194,-0.7112410911438463,0.0951421741166875,0.694165684354681,120.13312786111129,86.59320837295324,-72.2019374800764,0.4515380859375,0.56927490234375,0.43853759765625,-0.5289306640625,123.14966347183451,86.60670286979267,21.178175523370147,0.39753608285335057,,,,3,0,2,3
1788937998.1777005,3259681670.0,-9.92578125,0.53125,-0.37890625,0.029296875,-0.015625,0.1171875,29.125,-7.625,-23.75,29.125,-7.625,-23.75,0.05656471857317266,-0.7112326064742844,0.09555946142902362,0.694130392240484,119.85912632922924,86.54926794377036,-72.49678244169712,0.4515380859375,0.56927490234375,0.43853759765625,-0.5289306640625,123.14966347183451,86.60670286979267,21.178175523370147,0.3969232666417887,,,,3,0,3,3
1788937998.1822023,3259685076.0,-9.92578125,0.53125,-0.41796875,0.041015625,-0.017578125,0.11328125,29.125,-7.625,-23.75,29.125,-7.625,-23.75,0.05646614408951544,-0.7112362902116056,0.09586204526830482,0.6940929205334632,119.7028870227399,86.51813180737722,-72.6697586693087,0.4517822265625,0.569580078125,0.43804931640625,-0.52880859375,122.41658760086158,86.56505530010543,20.41476737135628,0.10970998527784394,,,,3,0,3,3
1788937998.1873531,3259689635.0,-9.8828125,0.4921875,-0.33984375,0.05859375,-0.01953125,0.119140625,28.0625,-9.25,-22.6875,28.0625,-9.25,-22.6875,0.05636850008218114,-0.7111833452816939,0.09636121363092114,0.6940859875404488,119.35004517969718,86.47518383161562,-73.0554843535768,0.4517822265625,0.569580078125,0.43804931640625,-0.52880859375,122.41658760086158,86.56505530010543,20.41476737135628,0.15853080896030883,,,,3,0,3,3
1788937998.1904063,3259693942.0,-9.88671875,0.5703125,-0.33984375,0.052734375,-0.013671875,0.111328125,28.0625,-9.25,-22.6875,28.0625,-9.25,-22.6875,0.05626364124843086,-0.7111415210953718,0.09681347205616597,0.6940744133564201,119.04284381802485,86.43456353548497,-73.39115145526047,0.45196533203125,0.56988525390625,0.4375,-0.5286865234375,121.62413439656079,86.42219109253192,19.635590459518696,1.1380064880838243,,,,3,0,3,3
1788937998.1945138,3259698925.0,-9.88671875,0.64453125,-0.30078125,0.0390625,-0.01953125,0.103515625,28.0625,-9.25,-22.6875,28.0625,-9.25,-22.6875,0.056119053356410396,-0.7110750806898896,0.09730189678647325,0.6940858897528474,118.64874921955406,86.38962382469732,-73.81343907168824,0.45196533203125,0.56988525390625,0.4375,-0.5286865234375,121.62413439656079,86.42219109253192,19.635590459518696,1.1438343414628638,,,,3,0,3,3
1788937998.198449,3259701278.0,-9.8828125,0.64453125,-0.33984375,0.0390625,-0.01953125,0.103515625,29.0,-8.8125,-22.5,29.0,-8.8125,-22.5,0.05604720621210802,-0.7110483635710653,0.09752975923737171,0.6940870848833224,118.47603688212891,86.36800803868458,-73.99894929295368,0.45196533203125,0.56988525390625,0.4375,-0.5286865234375,121.62413439656079,86.42219109253192,19.635590459518696,1.1473184386713207,,,,3,0,3,3
1788937998.2023137,3259705184.0,-9.9609375,0.68359375,-0.33984375,0.029296875,-0.015625,0.099609375,29.0,-8.8125,-22.5,29.0,-8.8125,-22.5,0.05591368641324367,-0.7110093899667181,0.09788960045984682,0.6940871221775031,118.2032341381225,86.33213901849516,-74.29033425604426,0.4521484375,0.5701904296875,0.43707275390625,-0.52862548828125,121.10831299217097,86.44701305549766,19.055677051128036,0.5647741511645756,,,,3,0,3,3
1788937998.2018137,3259709367.0,-9.92578125,0.68359375,-0.37890625,0.037109375,-0.025390625,0.087890625,29.0,-8.8125,-22.5,29.0,-8.8125,-22.5,0.05580243090458862,-0.710963633943876,0.09826294786411806,0.6940901908192555,117.92997939727938,86.29713610465599,-74.585087395552,0.4521484375,0.5701904296875,0.43707275390625,-0.52862548828125,121.10831299217097,86.44701305549766,19.055677051128036,0.5781347045637321,,,,3,0,3,3
1788937998.2057488,3259713320.0,-9.92578125,0.68359375,-0.33984375,0.037109375,-0.025390625,0.087890625,28.5625,-9.375,-23.25,28.5625,-9.375,-23.25,0.055705150462743935,-0.7109118624673235,0.09862195858768648,0.6941001147525426,117.6599714300385,86.2645612847359,-74.87655760790746,0.4521484375,0.5701904296875,0.43707275390625,-0.52862548828125,121.10831299217097,86.44701305549766,19.055677051128036,0.5948999047132929,,,,3,0,3,3
1788937998.2101479,3259718703.0,-9.921875,0.72265625,-0.37890625,0.03515625,-0.021484375,0.078125,28.5625,-9.375,-23.25,28.5625,-9.375,-23.25,0.05557944689966955,-0.710859442113158,0.09908361862572329,0.6940981307862232,117.35274600664728,86.221655147669,-75.21133861757073,0.45233154296875,0.57037353515625,0.4366455078125,-0.528564453125,120.44005063518347,86.35348521541272,18.396892883702186,1.0896653791166315,,,,3,0,3,3
1788937998.217849,3259720232.0,-9.88671875,0.72265625,-0.33984375,0.03515625,-0.025390625,0.0703125,28.5625,-9.375,-23.25,28.5625,-9.375,-23.25,0.055548238478622246,-0.7108404914564452,0.0992116753994965,0.6941017449713739,117.26075960531671,86.2102588116812,-75.31126569166948,0.45233154296875,0.57037353515625,0.4366455078125,-0.528564453125,120.44005063518347,86.35348521541272,18.396892883702186,1.093428704117121,,,,3,0,3,3
1788937998.2199454,3259724915.0,-9.921875,0.76171875,-0.37890625,0.0234375,-0.021484375,0.0625,28.5625,-9.375,-23.25,28.5625,-9.375,-23.25,0.05543941500409591,-0.7107987088796386,0.09956784759422503,0.6941022334242235,117.02084746957765,86.17624840749718,-75.5714772748253,0.45245361328125,0.570556640625,0.436279296875,-0.528564453125,119.95203319986399,86.32546949499377,17.884546361622128,1.0916640014898096,,,,3,0,3,3
1788937998.2160103,3259729198.0,-9.88671875,0.76171875,-0.33984375,0.01953125,-0.015625,0.0546875,28.5625,-9.375,-23.25,28.5625,-9.375,-23.25,0.05534408669442859,-0.7107641318609373,0.09988011684643806,0.694100384084802,116.81906978862392,86.14625408705935,-75.79106108123287,0.45245361328125,0.570556640625,0.436279296875,-0.528564453125,119.95203319986399,86.32546949499377,17.884546361622128,1.1006136184947302,,,,3,0,3,3
1788937998.2199454,3259731875.0,-9.8828125,0.72265625,-0.30078125,0.01953125,-0.015625,0.0546875,28.5625,-6.5,-22.6875,28.5625,-6.5,-22.6875,0.05519899030249998,-0.7107281680075229,0.09990115440270356,0.6941457354325977,116.6525463093546,86.1359339284835,-75.94750379947547,0.45245361328125,0.570556640625,0.436279296875,-0.528564453125,119.95203319986399,86.32546949499377,17.884546361622128,1.096863347748607,,,,3,0,3,3
1788937998.2311585,3259736557.0,-9.84765625,0.72265625,-0.33984375,0.01171875,-0.0234375,0.052734375,28.5625,-6.5,-22.6875,28.5625,-6.5,-22.6875,0.05492734196999711,-0.710725930013117,0.09992819114311056,0.6941656834833935,116.49363140063848,86.11384231929785,-76.08654900687482,0.45257568359375,0.5706787109375,0.43603515625,-0.528564453125,119.61053116693958,86.33852131436817,17.51054165993516,0.8260371099380667,,,,3,0,3,3
1788937998.2356856,3259740140.0,-9.8828125,0.68359375,-0.37890625,-0.001953125,-0.0234375,0.0546875,32.0,-9.5,-28.5625,32.0,-9.5,-28.5625,0.05482244725875312,-0.7107103160149147,0.10014697504848974,0.6941584324743009,116.35626711190854,86.08943674018988,-76.23329445782262,0.45257568359375,0.5706787109375,0.43603515625,-0.528564453125,119.61053116693958,86.33852131436817,17.51054165993516,0.8331287100983017,,,,3,0,3,3
1788937998.2356856,3259744323.0,-9.921875,0.72265625,-0.37890625,0.0,-0.017578125,0.052734375,32.0,-9.5,-28.5625,32.0,-9.5,-28.5625,0.05469316489475037,-0.7106966137189432,0.10040419397934013,0.6941455026099224,116.20443106725473,86.06000872362833,-76.39567734711983,0.4527587890625,0.57073974609375,0.435791015625,-0.52850341796875,119.13542134351604,86.27929954942901,17.053204458766857,1.1169989919572516,,,,3,0,3,3
1788937998.2337325,3259748629.0,-9.8828125,0.76171875,-0.30078125,-0.009765625,-0.02734375,0.05078125,32.0,-9.5,-28.5625,32.0,-9.5,-28.5625,0.054534431316637495,-0.7106333009291428,0.10066394838481484,0.6941851892017726,115.92861946545881,86.03090161653206,-76.67984016363695,0.4527587890625,0.57073974609375,0.435791015625,-0.52850341796875,119.13542134351604,86.27929954942901,17.053204458766857,1.1238006813294237,,,,3,0,3,3
1788937998.2356856,3259751682.0,-9.88671875,0.72265625,-0.2265625,-0.009765625,-0.02734375,0.05078125,32.8125,-8.25,-29.375,32.8125,-8.25,-29.375,0.054410648221416974,-0.7105436626411569,0.10065227852857302,0.6942883433182655,115.66681544217992,86.02754975594125,-76.93060812410607,0.4527587890625,0.57073974609375,0.435791015625,-0.52850341796875,119.13542134351604,86.27929954942901,17.053204458766857,1.1211534925585847,,,,3,0,2,3
1788937998.2501433,3259758942.0,-9.88671875,0.76171875,-0.2265625,-0.01171875,-0.0234375,0.041015625,32.8125,-8.25,-29.375,32.8125,-8.25,-29.375,0.054081422937945565,-0.7103443266619842,0.10065626424679139,0.6945174250801914,115.05408486664017,86.01336384723243,-77.51686366736135,0.45294189453125,0.57080078125,0.43560791015625,-0.5284423828125,118.77591997149112,86.26920889139343,16.687918718439235,1.04212555036445,,,,3,0,2,3
1788937998.2540784,3259759595.0,-9.84765625,0.76171875,-0.2265625,-0.025390625,-0.00390625,0.029296875,32.8125,-8.25,-29.375,32.8125,-8.25,-29.375,0.05405000054104495,-0.7103318406683802,0.10065065663002648,0.6945334541216344,115.01146794206304,86.01212497147961,-77.55646488633242,0.45294189453125,0.57080078125,0.43560791015625,-0.5284423828125,118.77591997149112,86.26920889139343,16.687918718439235,1.0412722191827533,,,,3,0,2,3
1788937998.2540784,3259763248.0,-9.921875,0.76171875,-0.26171875,-0.025390625,-0.00390625,0.029296875,32.8125,-8.25,-29.375,32.8125,-8.25,-29.375,0.053846907520123145,-0.7102793031335551,0.10060734956951599,0.694609230649311,114.8006495313235,86.00317143246703,-77.74721952442162,0.45294189453125,0.57080078125,0.43560791015625,-0.5284423828125,118.77591997149112,86.26920889139343,16.687918718439235,1.0351847584515028,,,,3,0,2,3
1788937998.2540784,3259767731.0,-9.921875,0.76171875,-0.26171875,-0.037109375,-0.001953125,0.0234375,32.8125,-8.25,-29.375,32.8125,-8.25,-29.375,0.05358707070668963,-0.7102218843923008,0.10052421007247915,0.6947000676354002,114.55869169268269,85.99337530131905,-77.96123997085985,0.453125,0.57080078125,0.43560791015625,-0.52838134765625,118.66450155719386,86.3491786640873,16.538103554709856,0.0,,,,3,0,2,3
1788937998.267599,3259771714.0,-9.92578125,0.64453125,-0.1875,-0.03125,-0.005859375,0.009765625,31.875,-8.1875,-29.125,31.875,-8.1875,-29.125,0.0535301021191446,-0.7101478093568638,0.10038271761157115,0.6948006383400039,114.38871909334554,86.00431163338915,-78.11498349719436,0.453125,0.57080078125,0.43560791015625,-0.52838134765625,118.66450155719386,86.3491786640873,16.538103554709856,0.0,,,,3,0,2,3
1788937998.2688522,3259775420.0,-9.88671875,0.60546875,-0.1875,-0.041015625,-0.00390625,0.005859375,31.875,-8.1875,-29.125,31.875,-8.1875,-29.125,0.053491567650969574,-0.7100906920010815,0.10021848895934533,0.6948856854147828,114.26851873639076,86.01757669731887,-78.21859551254934,0.4532470703125,0.57073974609375,0.43560791015625,-0.52825927734375,118.4762547886307,86.26248380217248,16.412991295363494,0.9348319556753866,,,,3,0,2,3
1788937998.2688522,3259779203.0,-9.84375,0.60546875,-0.1484375,-0.0390625,0.001953125,0.009765625,28.875,-8.5,-23.5,28.875,-8.5,-23.5,0.053424458815221613,-0.7100399633505962,0.10035422456011074,0.6949230944919903,114.10100640358743,86.00413123482403,-78.3917563933741,0.4532470703125,0.57073974609375,0.43560791015625,-0.52825927734375,118.4762547886307,86.26248380217248,16.412991295363494,0.9404800485190657,,,,3,0,3,3
1788937998.2688522,3259783479.0,-9.84765625,0.60546875,-0.26171875,-0.0390625,0.001953125,0.009765625,28.875,-8.5,-23.5,28.875,-8.5,-23.5,0.053345855851969416,-0.7100345949057535,0.1005212021468229,0.6949104846089177,114.02553574956876,85.98499518653544,-78.47450836525128,0.4532470703125,0.57073974609375,0.43560791015625,-0.52825927734375,118.4762547886307,86.26248380217248,16.412991295363494,0.9461122230304756,,,,3,0,3,3
1788937998.2823265,3259786885.0,-9.80859375,0.53125,-0.26171875,-0.0390625,0.0078125,0.009765625,28.875,-8.5,-23.5,28.875,-8.5,-23.5,0.053317284159413454,-0.7100407472524349,0.1006504240903796,0.6948876863072875,114.00591203232017,85.97209536107177,-78.50239108545072,0.453369140625,0.5706787109375,0.43572998046875,-0.52813720703125,118.50726826612993,86.2741259919527,16.45906133349396,0.8282332661092286,,,,3,0,3,3
1788937998.2768328,3259791245.0,-9.84765625,0.5703125,-0.33984375,-0.025390625,0.005859375,0.009765625,29.5625,-6.5,-22.5,29.5625,-6.5,-22.5,0.05332523851126913,-0.7101048891624283,0.10043115690959219,0.694853256484513,114.18606688598507,85.987182422917,-78.30494290605994,0.453369140625,0.5706787109375,0.43572998046875,-0.52813720703125,118.50726826612993,86.2741259919527,16.45906133349396,0.8139704193097663,,,,3,0,3,3
1788937998.285563,3259794751.0,-9.8046875,0.5703125,-0.33984375,-0.015625,0.0,0.01171875,29.5625,-6.5,-22.5,29.5625,-6.5,-22.5,0.0533404647062445,-0.7101496926975961,0.10026910458354651,0.6948297024828787,114.31891563895712,85.99913798361037,-78.16007302660378,0.4534912109375,0.57061767578125,0.43572998046875,-0.528076171875,118.34203813143725,86.24974192040608,16.320070242098836,0.9813326653564995,,,,3,0,3,3
1788937998.2836099,3259798981.0,-9.80859375,0.53125,-0.33984375,-0.015625,0.0,0.01171875,29.5625,-6.5,-22.5,29.5625,-6.5,-22.5,0.0533758600831953,-0.7101993713339337,0.10007735896911021,0.6948038519892016,114.47830225406626,86.0147277000635,-77.98787504704796,0.4534912109375,0.57061767578125,0.43572998046875,-0.528076171875,118.34203813143725,86.24974192040608,16.320070242098836,0.9728533864061648,,,,3,0,3,3
1788937998.285563,3259802587.0,-9.76953125,0.53125,-0.37890625,-0.01171875,0.005859375,0.01171875,28.0,-6.875,-22.4375,28.0,-6.875,-22.4375,0.053409175181724736,-0.7102889557794715,0.1000140161217179,0.6947188322503721,114.70571977550397,86.01770659749069,-77.75799716282403,0.4534912109375,0.57061767578125,0.43572998046875,-0.528076171875,118.34203813143725,86.24974192040608,16.320070242098836,0.9689215917178963,,,,3,0,3,3
1788937998.302279,3259806493.0,-9.8046875,0.60546875,-0.37890625,-0.005859375,-0.005859375,0.017578125,28.0,-6.875,-22.4375,28.0,-6.875,-22.4375,0.05338694601866411,-0.7103761271804327,0.10001954137485387,0.6946306092234156,114.88846827947295,86.0110457593087,-77.57391160462704,0.45355224609375,0.5706787109375,0.43572998046875,-0.52801513671875,118.3753552454267,86.2920174404061,16.325412540450472,0.3764417711488412,,,,3,0,3,3
1788937998.3055875,3259810376.0,-9.88671875,0.60546875,-0.37890625,-0.0078125,-0.009765625,0.017578125,28.5625,-6.5,-23.0,28.5625,-6.5,-23.0,0.05337771004989264,-0.710432369922637,0.09987301109502683,0.6945948815610057,115.03497791912207,86.0191926342612,-77.41466692080456,0.45355224609375,0.5706787109375,0.43572998046875,-0.52801513671875,118.3753552454267,86.2920174404061,16.325412540450472,0.35704708797140267,,,,3,0,3,3
1788937998.3055875,3259814959.0,-9.921875,0.64453125,-0.453125,0.001953125,-0.013671875,0.017578125,28.5625,-6.5,-23.0,28.5625,-6.5,-23.0,0.053346060000956874,-0.7105197893952985,0.09978952136024291,0.6945198904183585,115.22909688834413,86.01890146011903,-77.2111584976026,0.45361328125,0.5706787109375,0.43560791015625,-0.52801513671875,118.1288900886031,86.24137114519128,16.101898080679142,0.8827273405437661,,,,3,0,3,3
1788937998.3036344,3259818212.0,-9.8828125,0.64453125,-0.41796875,0.001953125,-0.013671875,0.017578125,28.5625,-6.5,-23.0,28.5625,-6.5,-23.0,0.05332143250159969,-0.7105780531243195,0.09971273877678824,0.6944731996122393,115.36055753629049,86.02011665025911,-77.07142252742,0.45361328125,0.5706787109375,0.43560791015625,-0.52801513671875,118.1288900886031,86.24137114519128,16.101898080679142,0.8777464057399447,,,,3,0,3,3
1788937998.3185654,3259822695.0,-9.92578125,0.68359375,-0.37890625,0.0,-0.025390625,0.015625,28.9375,-7.4375,-22.6875,28.9375,-7.4375,-22.6875,0.05324360465339144,-0.7105855471417031,0.09989995329694507,0.6944445968456433,115.3037571093767,85.99885402196638,-77.13722496340229,0.45361328125,0.5706787109375,0.43560791015625,-0.52801513671875,118.1288900886031,86.24137114519128,16.101898080679142,0.882609185964519,,,,3,0,3,3
1788937998.3189118,3259826001.0,-9.921875,0.72265625,-0.41796875,0.0,-0.025390625,0.01171875,28.9375,-7.4375,-22.6875,28.9375,-7.4375,-22.6875,0.05318346732041343,-0.7105976863100735,0.10002276903158493,0.6944191044965593,115.27830174884143,85.98383771151266,-77.16784956977293,0.45367431640625,0.57061767578125,0.435546875,-0.528076171875,117.92839793866415,86.24398989875068,15.903039766545087,0.906340289660511,,,,3,0,3,3
1788937998.3169587,3259830584.0,-9.92578125,0.72265625,-0.453125,0.001953125,-0.029296875,0.005859375,28.9375,-7.4375,-22.6875,28.9375,-7.4375,-22.6875,0.05312128510837748,-0.7106206827906913,0.10016885044888958,0.6943792736381711,115.27184641379223,85.96621414827972,-77.18121521477191,0.45367431640625,0.57061767578125,0.435546875,-0.528076171875,117.92839793866415,86.24398989875068,15.903039766545087,0.910526489131559,,,,3,0,3,3
1788937998.3189118,3259837667.0,-9.92578125,0.72265625,-0.53125,-0.01171875,-0.037109375,0.0,28.8125,-6.125,-23.25,28.8125,-6.125,-23.25,0.0530473685076062,-0.7107040322698676,0.09994188151202804,0.6943323235523496,115.45924820950067,85.97447231872508,-76.96924189808811,0.45379638671875,0.570556640625,0.4354248046875,-0.52813720703125,117.59011226865267,86.24462857781641,15.56522211695448,0.9010470682987561,,,,3,0,3,3
1788937998.3355725,3259841450.0,-9.92578125,0.68359375,-0.41796875,-0.001953125,-0.0390625,-0.01171875,31.4375,-8.75,-29.875,31.4375,-8.75,-29.875,0.05301879984682074,-0.7107390450996474,0.09996667086301908,0.694295096734961,115.51740472117793,85.96845525242817,-76.91080019663387,0.45379638671875,0.570556640625,0.4354248046875,-0.52813720703125,117.59011226865267,86.24462857781641,15.56522211695448,0.9009935701785584,,,,3,0,3,3
1788937998.3355725,3259846132.0,-9.921875,0.68359375,-0.453125,0.009765625,-0.044921875,-0.00390625,31.4375,-8.75,-29.875,31.4375,-8.75,-29.875,0.05300267539818513,-0.7107729819498704,0.10001903091296395,0.6942540442705073,115.57423851724529,85.96120301901033,-76.85694952690291,0.453857421875,0.5704345703125,0.43536376953125,-0.52825927734375,117.32366297073283,86.251700399248,15.303292969380047,0.9596649649276999,,,,3,0,3,3
1788937998.346578,3259849715.0,-9.92578125,0.68359375,-0.41796875,0.001953125,-0.05078125,-0.021484375,32.9375,-9.0625,-28.6875,32.9375,-9.0625,-28.6875,0.05300437773461719,-0.7107693620620141,0.1000985586875984,0.6942461583931081,115.5525672588638,85.95513473403064,-76.8852691257994,0.453857421875,0.5704345703125,0.43536376953125,-0.52825927734375,117.32366297073283,86.251700399248,15.303292969380047,0.9630337192358579,,,,3,0,2,3
1788937998.3481722,3259854068.0,-9.921875,0.68359375,-0.453125,0.001953125,-0.05078125,-0.021484375,32.9375,-9.0625,-28.6875,32.9375,-9.0625,-28.6875,0.05301199246088925,-0.710774467999233,0.10017661471851241,0.694229090545241,115.55332402867673,85.94915029046787,-76.89152265249696,0.453857421875,0.5704345703125,0.43536376953125,-0.52825927734375,117.32366297073283,86.251700399248,15.303292969380047,0.9665690449475542,,,,3,0,2,3
1788937998.3518336,3259857575.0,-9.921875,0.64453125,-0.453125,0.0,-0.0546875,-0.02734375,32.9375,-9.0625,-28.6875,32.9375,-9.0625,-28.6875,0.05304126225439762,-0.7107814872369769,0.10021521988165938,0.6942140963735339,115.57635726890462,85.94784498566662,-76.87403031882165,0.45391845703125,0.5703125,0.435302734375,-0.5284423828125,117.07658936389858,86.32035749412437,15.02171651963525,0.44384021141300867,,,,3,0,2,3
1788937998.3518336,3259861157.0,-9.92578125,0.64453125,-0.41796875,-0.005859375,-0.056640625,-0.03125,30.5625,-9.125,-29.375,30.5625,-9.125,-29.375,0.05307228573720217,-0.7107770897768606,0.10026645016820587,0.6942088303281887,115.57298346538728,85.94627582907094,-76.88411882778206,0.45391845703125,0.5703125,0.435302734375,-0.5284423828125,117.07658936389858,86.32035749412437,15.02171651963525,0.4506001185910501,,,,3,0,2,3
1788937998.3518336,3259866040.0,-9.92578125,0.64453125,-0.41796875,0.005859375,-0.056640625,-0.033203125,30.5625,-9.125,-29.375,30.5625,-9.125,-29.375,0.05313836723322093,-0.7107703998037375,0.10035202042581888,0.6941982603601644,115.57597099098584,85.944680690971,-76.89350635855085,0.4539794921875,0.570068359375,0.43524169921875,-0.5286865234375,116.67167894150369,86.33650312487309,14.626607793111324,0.6772581222144933,,,,3,0,2,3
1788937998.3674252,3259869523.0,-9.92578125,0.64453125,-0.37890625,0.005859375,-0.064453125,-0.041015625,32.3125,-9.5,-28.5625,32.3125,-9.5,-28.5625,0.05319436796059513,-0.710730032012679,0.10044572467160229,0.6942217493047346,115.49881124502787,85.94350669914617,-76.9828809058471,0.4539794921875,0.570068359375,0.43524169921875,-0.5286865234375,116.67167894150369,86.33650312487309,14.626607793111324,0.6854263204314854,,,,3,0,2,3
1788937998.3694,3259873000.0,-9.8828125,0.64453125,-0.37890625,0.005859375,-0.064453125,-0.041015625,32.3125,-9.5,-28.5625,32.3125,-9.5,-28.5625,0.05324925694584646,-0.7106905139770703,0.10053831730060567,0.6942445943124695,115.42322380349286,85.94228435178498,-77.07050214363376,0.4539794921875,0.570068359375,0.43524169921875,-0.5286865234375,116.67167894150369,86.33650312487309,14.626607793111324,0.6936521383125082,,,,3,0,2,3
1788937998.3694,3259877182.0,-9.8828125,0.64453125,-0.37890625,0.009765625,-0.068359375,-0.048828125,32.3125,-9.5,-28.5625,32.3125,-9.5,-28.5625,0.053333518367709686,-0.7106391989808438,0.10064249890203943,0.6942755592019199,115.33446930557254,85.94294444184955,-77.17462428237718,0.4539794921875,0.56982421875,0.4351806640625,-0.52899169921875,116.3087163239084,86.36732469636779,14.261468144865448,0.7840125329872416,,,,3,0,2,3
1788937998.3694,3259880565.0,-9.8828125,0.68359375,-0.37890625,0.009765625,-0.0703125,-0.052734375,27.75,-5.6875,-23.6875,27.75,-5.6875,-23.6875,0.05341174198561927,-0.7105961242066541,0.10041836846621159,0.6943460847121753,115.31864877185485,85.96912300959066,-77.17844283016001,0.4539794921875,0.56982421875,0.4351806640625,-0.52899169921875,116.3087163239084,86.36732469636779,14.261468144865448,0.7712141262803054,,,,3,0,3,3
1788937998.3826115,3259885348.0,-9.88671875,0.72265625,-0.37890625,0.0,-0.072265625,-0.056640625,27.75,-5.6875,-23.6875,27.75,-5.6875,-23.6875,0.05348914523734788,-0.7105359884755981,0.10008100200602561,0.6944503678883412,115.284869261696,86.00526139122266,-77.19088074628955,0.4539794921875,0.569580078125,0.4351806640625,-0.529296875,116.05099915125463,86.44903883020176,13.973663687465889,0.0,,,,3,0,3,3
1788937998.3817613,3259888854.0,-9.8828125,0.796875,-0.453125,-0.005859375,-0.08203125,-0.068359375,27.75,-5.6875,-23.6875,27.75,-5.6875,-23.6875,0.05351811559267831,-0.7105100980760859,0.09984002975445079,0.69450930900453,115.28542446930382,86.02819391682561,-77.17294763070954,0.4539794921875,0.569580078125,0.4351806640625,-0.529296875,116.05099915125463,86.44903883020176,13.973663687465889,0.0,,,,3,0,3,3
1788937998.3856964,3259892807.0,-9.84765625,0.796875,-0.41796875,-0.005859375,-0.08203125,-0.068359375,28.5625,-9.375,-23.25,28.5625,-9.375,-23.25,0.05357644231109117,-0.7104285504940874,0.0999049857615076,0.6945788891782915,115.12076232020007,86.03166903615545,-77.34765144974867,0.4539794921875,0.569580078125,0.4351806640625,-0.529296875,116.05099915125463,86.44903883020176,13.973663687465889,0.0,,,,3,0,3,3
1788937998.3817613,3259898390.0,-9.84765625,0.796875,-0.37890625,-0.0078125,-0.08984375,-0.076171875,28.5625,-9.375,-23.25,28.5625,-9.375,-23.25,0.05367132856930057,-0.7102920480966607,0.09998185212593781,0.6947000965493848,114.84868404806232,86.03976778195661,-77.63370720285327,0.4539794921875,0.5692138671875,0.4351806640625,-0.5296630859375,115.62221468028966,86.47618807795627,13.561890656081337,0.618371866809585,,,,3,0,3,3
1788937998.3856964,3259900896.0,-9.88671875,0.76171875,-0.26171875,-0.025390625,-0.1015625,-0.091796875,28.5625,-9.375,-23.25,28.5625,-9.375,-23.25,0.05371635285536173,-0.7102106888489105,0.0999923160774301,0.6947782866542002,114.6862847526271,86.04653460144024,-77.8006065716048,0.4539794921875,0.5692138671875,0.4351806640625,-0.5296630859375,115.62221468028966,86.47618807795627,13.561890656081337,0.619250415684278,,,,3,0,3,3
1788937998.4022684,3259904603.0,-9.84765625,0.72265625,-0.1875,-0.029296875,-0.09765625,-0.099609375,28.5625,-9.375,-23.25,28.5625,-9.375,-23.25,0.053793324935148594,-0.7100835397165022,0.09999497606913277,0.694901899246964,114.43694486485649,86.05864366998867,-78.056395631888,0.4539794921875,0.5687255859375,0.43524169921875,-0.53009033203125,115.1258991939417,86.4987633571376,13.10377066946404,1.0350523791836104,,,,3,0,3,3
1788937998.3988395,3259908885.0,-9.88671875,0.76171875,-0.1875,-0.03515625,-0.08203125,-0.107421875,28.5625,-9.375,-23.25,28.5625,-9.375,-23.25,0.05387484695999707,-0.7099629199356093,0.09997805552123362,0.6950212526216256,114.20635824522255,86.07226730262319,-78.29219996105098,0.4539794921875,0.5687255859375,0.43524169921875,-0.53009033203125,115.1258991939417,86.4987633571376,13.10377066946404,1.0341276442082281,,,,3,0,3,3
1788937998.4027746,3259912539.0,-9.92578125,0.72265625,-0.1484375,-0.03515625,-0.08203125,-0.107421875,28.3125,-8.875,-22.9375,28.3125,-8.875,-22.9375,0.053947881477496726,-0.7098475748466314,0.0999616952103847,0.695135746497842,113.98201414630486,86.08487644894565,-78.52111917377772,0.4539794921875,0.5687255859375,0.43524169921875,-0.53009033203125,115.1258991939417,86.4987633571376,13.10377066946404,1.0335464782279045,,,,3,0,3,3
1788937998.4027746,3259916245.0,-9.921875,0.60546875,-0.2265625,-0.03515625,-0.08203125,-0.109375,28.3125,-8.875,-22.9375,28.3125,-8.875,-22.9375,0.05404943211004516,-0.7097514198297284,0.09994746029357418,0.6952280820846715,113.81383689981625,86.09845437009896,-78.69636720490455,0.45404052734375,0.56817626953125,0.4354248046875,-0.530517578125,114.72126508115643,86.6156722552168,12.692406292840746,0.7440472698620398,,,,3,0,3,3
1788937998.4190235,3259919828.0,-9.921875,0.5703125,-0.2265625,-0.044921875,-0.08203125,-0.119140625,29.0,-6.875,-22.3125,29.0,-6.875,-22.3125,0.05423138231271291,-0.709621733155636,0.09963141130633019,0.6953916413696332,113.65251949552204,86.14410668625064,-78.84657814713226,0.45404052734375,0.56817626953125,0.4354248046875,-0.530517578125,114.72126508115643,86.6156722552168,12.692406292840746,0.7216170193988953,,,,3,0,3,3
1788937998.4190235,3259924410.0,-9.8828125,0.53125,-0.26171875,-0.04296875,-0.08203125,-0.115234375,29.0,-6.875,-22.3125,29.0,-6.875,-22.3125,0.05451945446260567,-0.7095336204825641,0.09919872870996607,0.6955208715145299,113.65651614121747,86.20513620442638,-78.83056430044424,0.4539794921875,0.567626953125,0.4356689453125,-0.53094482421875,114.47856903283424,86.68500657193096,12.476052975119153,0.8419491750421517,,,,3,0,3,3
1788937998.4150884,3259929293.0,-9.84375,0.4140625,-0.2265625,-0.037109375,-0.083984375,-0.111328125,29.0,-6.875,-22.3125,29.0,-6.875,-22.3125,0.05483676184916924,-0.7094142535421845,0.09876637586576999,0.6956792000767482,113.60113282884777,86.26986337879154,-78.87633251515076,0.4539794921875,0.567626953125,0.4356689453125,-0.53094482421875,114.47856903283424,86.68500657193096,12.476052975119153,0.8204757141197008,,,,3,0,3,3
1788937998.4190235,3259932346.0,-9.84375,0.4140625,-0.1875,-0.037109375,-0.083984375,-0.111328125,28.5625,-7.0,-23.0,28.5625,-7.0,-23.0,0.05502918090472626,-0.709319764487548,0.09850779459484459,0.69579700729476,113.51274916092106,86.30989237209185,-78.9591787111053,0.4539794921875,0.567626953125,0.4356689453125,-0.53094482421875,114.47856903283424,86.68500657193096,12.476052975119153,0.8097301204934689,,,,3,0,3,3
1788937998.4349406,3259936229.0,-9.84765625,0.33984375,-0.1875,-0.033203125,-0.078125,-0.09765625,28.5625,-7.0,-23.0,28.5625,-7.0,-23.0,0.055268415524620244,-0.7092186855441605,0.09819728089759608,0.6959249617198178,113.43908757700333,86.35796120548513,-79.02685926770023,0.45404052734375,0.567138671875,0.43585205078125,-0.53131103515625,114.12542938963254,86.80235693212596,12.108949596955474,0.14552559402397852,,,,3,0,3,3
1788937998.4355958,3259940035.0,-9.80859375,0.26171875,-0.1484375,-0.021484375,-0.080078125,-0.087890625,28.5625,-7.0,-23.0,28.5625,-7.0,-23.0,0.05550323391104108,-0.7091080046639556,0.09792430201164176,0.6960575118641078,113.33142368204572,86.40311219898953,-79.1312553523444,0.45404052734375,0.567138671875,0.43585205078125,-0.53131103515625,114.12542938963254,86.80235693212596,12.108949596955474,0.07905592323462901,,,,3,0,3,3
1788937998.4417388,3259948195.0,-9.76953125,0.22265625,-0.1484375,-0.01171875,-0.08203125,-0.078125,32.25,-7.125,-28.3125,32.25,-7.125,-28.3125,0.05590536890071543,-0.7088922232697511,0.09730045447733954,0.6963325549435755,113.10044868545893,86.49428264461584,-79.34384164682575,0.45404052734375,0.566650390625,0.43597412109375,-0.53167724609375,113.66056986761225,86.80957418053214,11.699072518999195,0.8707997883780833,,,,3,0,3,3
1788937998.4439957,3259951601.0,-9.8046875,0.22265625,-0.26171875,0.001953125,-0.0859375,-0.064453125,32.25,-7.125,-28.3125,32.25,-7.125,-28.3125,0.05607707043649017,-0.7088193779275437,0.09706719800314438,0.6964254523762679,113.04298638973535,86.52959629680605,-79.39616716588881,0.45404052734375,0.566650390625,0.43597412109375,-0.53167724609375,113.66056986761225,86.80957418053214,11.699072518999195,0.8653932878124597,,,,3,0,3,3
1788937998.4512787,3259955107.0,-9.765625,0.22265625,-0.26171875,0.013671875,-0.087890625,-0.0546875,32.25,-7.125,-28.3125,32.25,-7.125,-28.3125,0.0562567401820589,-0.7087401541317316,0.09685339485566088,0.6965213514389571,112.96890006428656,86.56423413134267,-79.46735630668323,0.45404052734375,0.5662841796875,0.43597412109375,-0.53204345703125,113.13866682393449,86.8357759535323,11.196427995465813,1.0406451620778463,,,,3,0,3,3
1788937998.452977,3259959667.0,-9.73046875,0.26171875,-0.1875,0.021484375,-0.09375,-0.046875,31.4375,-7.8125,-29.8125,31.4375,-7.8125,-29.8125,0.0565015127916667,-0.7086005671315643,0.0966077481291646,0.6966776573957935,112.77434849322968,86.60919633225359,-79.66169063691306,0.45404052734375,0.5662841796875,0.43597412109375,-0.53204345703125,113.13866682393449,86.8357759535323,11.196427995465813,1.038366398747864,,,,3,0,3,3
1788937998.452977,3259963243.0,-9.73046875,0.30078125,-0.1484375,0.021484375,-0.09375,-0.046875,31.4375,-7.8125,-29.8125,31.4375,-7.8125,-29.8125,0.05668629005350592,-0.7084773140232848,0.09641839721545147,0.6968142167843056,112.5770293606602,86.64424883599087,-79.85852436493194,0.45404052734375,0.5662841796875,0.43597412109375,-0.53204345703125,113.13866682393449,86.8357759535323,11.196427995465813,1.0377917667231085,,,,3,0,3,3
1788937998.452977,3259967626.0,-9.765625,0.33984375,-0.0703125,0.021484375,-0.09765625,-0.04296875,31.4375,-7.8125,-29.8125,31.4375,-7.8125,-29.8125,0.05688835472627172,-0.7082880708720124,0.09621461132717345,0.697018272589824,112.20845484974033,86.68472754361485,-80.22683012027804,0.45404052734375,0.56597900390625,0.43585205078125,-0.532470703125,112.47201943666134,86.88604189229966,10.514364599854755,1.0135990637525327,,,,3,0,3,3
1788937998.4694893,3259971409.0,-9.84375,0.37890625,-0.109375,0.025390625,-0.095703125,-0.037109375,32.3125,-6.5625,-27.875,32.3125,-6.5625,-27.875,0.057038465865268326,-0.7081477036253245,0.09602262876986709,0.6971750841976788,111.9358570224089,86.71798503374254,-80.49590937226024,0.45404052734375,0.56597900390625,0.43585205078125,-0.532470703125,112.47201943666134,86.88604189229966,10.514364599854755,1.0123433455130468,,,,3,0,3,3
1788937998.4694893,3259974915.0,-9.88671875,0.4140625,-0.109375,0.025390625,-0.0859375,-0.03515625,32.3125,-6.5625,-27.875,32.3125,-6.5625,-27.875,0.05716676417208683,-0.7080275161370801,0.09584791590348027,0.6973106728595292,111.6996542670384,86.74721912300728,-80.72823665616754,0.4541015625,0.56573486328125,0.4356689453125,-0.53289794921875,111.74100840485046,87.00466704915607,9.705864704790594,0.164930398989218,,,,3,0,3,3
1788937998.4675362,3259979445.0,-9.92578125,0.37890625,-0.109375,0.025390625,-0.0859375,-0.03515625,32.3125,-6.5625,-27.875,32.3125,-6.5625,-27.875,0.057341232004942656,-0.7078755810358079,0.09562125419886083,0.6974816991368373,111.40260071526053,86.78550185152879,-81.02091670416544,0.4541015625,0.56573486328125,0.4356689453125,-0.53289794921875,111.74100840485046,87.00466704915607,9.705864704790594,0.16113358399633815,,,,3,0,3,3
1788937998.4694893,3259982851.0,-9.8828125,0.37890625,-0.109375,0.021484375,-0.087890625,-0.033203125,28.0625,-7.1875,-24.1875,28.0625,-7.1875,-24.1875,0.05753273901082075,-0.7077150911113392,0.09555847663924706,0.6976373780823157,111.06045024625469,86.81205096334529,-81.37348289274311,0.4541015625,0.56573486328125,0.4356689453125,-0.53289794921875,111.74100840485046,87.00466704915607,9.705864704790594,0.19602195233164496,,,,3,0,3,3
1788937998.4832327,3259988434.0,-9.9609375,0.37890625,-0.1484375,0.017578125,-0.087890625,-0.01953125,28.0625,-7.1875,-24.1875,28.0625,-7.1875,-24.1875,0.05786987539311828,-0.7074881034011096,0.09546639585506057,0.6978522969298953,110.60210016043521,86.85475346810645,-81.8516860618912,0.45416259765625,0.56549072265625,0.43548583984375,-0.53326416015625,110.97208230333358,87.0497827819103,8.912880954986315,0.0,,,,3,0,3,3
