pc_unix,dev_us,ax,ay,az,gx,gy,gz,mx_raw,my_raw,mz_raw,mx,my,mz,host_qw,host_qx,host_qy,host_qz,host_roll,host_pitch,host_yaw,chip_qw,chip_qx,chip_qy,chip_qz,chip_roll,chip_pitch,chip_yaw,diff_deg,rel_roll,rel_pitch,rel_yaw,cal_acc,cal_gyr,cal_mag,cal_rv
1788940474.8396542,1441414069.0,-9.46484375,0.453125,2.6484375,-0.0234375,0.048828125,-0.03125,23.1875,-7.1875,-38.125,23.1875,-7.1875,-38.125,0.05964298102136091,-0.5930710066130092,0.08154474419089168,0.7987865488506675,11.869350834488204,73.17661056688925,-179.7150022488914,0.52056884765625,0.4783935546875,0.36065673828125,-0.60833740234375,11.864396613060885,73.24430492691094,-90.05869980301989,0.7901065685053728,,,,3,0,2,3
1788940474.8443255,1441418052.0,-9.421875,0.4140625,2.6484375,-0.013671875,0.052734375,-0.029296875,23.125,-5.3125,-37.9375,23.125,-5.3125,-37.9375,0.059678614026591414,-0.5932029396230999,0.08130113621504538,0.7987107490828708,11.78975256790288,73.1959385246968,-179.77718875608298,0.5203857421875,0.47845458984375,0.3609619140625,-0.6082763671875,11.801661834672116,73.2843775589185,-90.11697085386791,0.6729923234771593,,,,3,0,2,3
1788940474.8420656,1441422935.0,-9.4609375,0.37890625,2.609375,-0.005859375,0.041015625,-0.01953125,23.125,-5.3125,-37.9375,23.125,-5.3125,-37.9375,0.059722252315921036,-0.5933498184525887,0.08103535357846622,0.7986253921526705,11.701762874167079,73.21749165404981,-179.84656849274234,0.5203857421875,0.47845458984375,0.3609619140625,-0.6082763671875,11.801661834672116,73.2843775589185,-90.11697085386791,0.6730244890665076,,,,3,0,2,3
1788940474.8460007,1441424811.0,-9.46484375,0.453125,2.6484375,-0.005859375,0.041015625,-0.01953125,23.1875,-9.625,-38.375,23.1875,-9.625,-38.375,0.059756390047961586,-0.5934119770842377,0.08108881633530118,0.7985712261074474,11.713975464405666,73.22680460869658,-179.84142849593334,0.5203857421875,0.47845458984375,0.3609619140625,-0.6082763671875,11.801661834672116,73.2843775589185,-90.11697085386791,0.6684489822136915,,,,3,0,2,3
1788940474.8566806,1441429294.0,-9.46484375,0.453125,2.6484375,-0.009765625,0.041015625,-0.013671875,23.1875,-9.625,-38.375,23.1875,-9.625,-38.375,0.05982276093905965,-0.5935596617792774,0.08121755294894972,0.7984434070584354,11.747021119924627,73.24871832930133,-179.82411756684255,0.520263671875,0.478515625,0.36114501953125,-0.60821533203125,11.771921766024894,73.30794788775744,-90.14027431355046,0.7608453732233352,,,,3,0,2,3
1788940474.8512607,1441432700.0,-9.46484375,0.4921875,2.609375,0.001953125,0.03515625,-0.015625,23.1875,-9.625,-38.375,23.1875,-9.625,-38.375,0.05987408353864143,-0.5936663395104667,0.08132833169774496,0.7983489675047577,11.77585311903192,73.26459397117405,-179.80839305710236,0.520263671875,0.478515625,0.36114501953125,-0.60821533203125,11.771921766024894,73.30794788775744,-90.14027431355046,0.7548801101785645,,,,3,0,2,3
1788940474.8557167,1441436654.0,-9.46484375,0.4921875,2.6484375,0.001953125,0.03515625,-0.015625,22.625,-6.6875,-35.0,22.625,-6.6875,-35.0,0.05992625402982882,-0.5938161310208793,0.0811787583554425,0.7982488683419569,11.723008755632714,73.28666465241862,-179.85289033371942,0.520263671875,0.478515625,0.36114501953125,-0.60821533203125,11.771921766024894,73.30794788775744,-90.14027431355046,0.7529914680930498,,,,3,0,2,3
1788940474.8604476,1441441736.0,-9.421875,0.53125,2.6484375,0.005859375,0.025390625,-0.009765625,22.625,-6.6875,-35.0,22.625,-6.6875,-35.0,0.05996539818454055,-0.5939927956171823,0.08100869439196191,0.7981317567973121,11.667814284866962,73.31236029311002,-179.89692590165015,0.52020263671875,0.4786376953125,0.36126708984375,-0.608154296875,11.781631947481799,73.34248845012564,-90.1460112909315,0.0,,,,3,0,2,3
1788940474.8624008,1441444919.0,-9.42578125,0.60546875,2.6484375,0.01171875,0.029296875,-0.0078125,22.625,-6.6875,-35.0,22.625,-6.6875,-35.0,0.0599493221738047,-0.5941177858906617,0.08094836586577678,0.7980460496255461,11.658275199637565,73.32989578968038,-179.89991567402103,0.52020263671875,0.4786376953125,0.36126708984375,-0.608154296875,11.781631947481799,73.34248845012564,-90.1460112909315,0.0,,,,3,0,2,3
1788940474.8761065,1441448825.0,-9.46484375,0.64453125,2.609375,0.015625,0.013671875,-0.009765625,22.625,-6.6875,-35.0,22.625,-6.6875,-35.0,0.059926770498243104,-0.594250769552638,0.0809300878188485,0.7979505786384153,11.664194043757963,73.3484701076478,-179.890360887928,0.52008056640625,0.47869873046875,0.361328125,-0.60809326171875,11.77366196908143,73.34070742851345,-90.13412380401266,0.995454242853495,,,,3,0,2,3
1788940474.872518,1441453008.0,-9.42578125,0.72265625,2.6484375,0.025390625,0.015625,-0.017578125,22.625,-6.6875,-35.0,22.625,-6.6875,-35.0,0.05985188282454706,-0.5943694431833068,0.08098246197373588,0.797862493155929,11.704542215651045,73.3642392032763,-179.8479263071336,0.52008056640625,0.47869873046875,0.361328125,-0.60809326171875,11.77366196908143,73.34070742851345,-90.13412380401266,0.9989259917550386,,,,3,0,2,3
1788940474.8764532,1441456761.0,-9.42578125,0.76171875,2.6484375,0.025390625,0.015625,-0.017578125,21.0625,-7.8125,-30.875,21.0625,-7.8125,-30.875,0.05987260566663285,-0.5944153340760132,0.08117585765544522,0.7978070956314518,11.76435370325081,73.37102221262168,-179.8056381329574,0.52008056640625,0.47869873046875,0.361328125,-0.60809326171875,11.77366196908143,73.34070742851345,-90.13412380401266,0.9954679391647815,,,,3,0,3,3
1788940474.8745,1441462544.0,-9.42578125,0.72265625,2.6484375,0.017578125,0.0078125,-0.0234375,21.0625,-7.8125,-30.875,21.0625,-7.8125,-30.875,0.059916281666330735,-0.5944745216265601,0.08144344711030654,0.7977324408916465,11.84343122423123,73.38000147716824,-179.75204744890252,0.51995849609375,0.478759765625,0.361328125,-0.608154296875,11.75934055225615,73.3495950196975,-90.16388045818293,0.9593929334181321,,,,3,0,3,3
1788940474.8764532,1441464074.0,-9.421875,0.796875,2.6875,0.01171875,0.005859375,-0.025390625,21.0625,-7.8125,-30.875,21.0625,-7.8125,-30.875,0.05992160577574099,-0.5944835255944951,0.08151189902199957,0.7977183395634222,11.864738676390164,73.3813377013781,-179.7367926378844,0.51995849609375,0.478759765625,0.361328125,-0.608154296875,11.75934055225615,73.3495950196975,-90.16388045818293,0.9585404722111963,,,,3,0,3,3
1788940474.8929386,1441468757.0,-9.34765625,0.796875,2.76171875,0.0078125,0.005859375,-0.037109375,21.0625,-7.8125,-30.875,21.0625,-7.8125,-30.875,0.059952950797716266,-0.5944828756940614,0.08170380513821231,0.797696836162149,11.919302853771372,73.38164160713293,-179.70059980272717,0.51983642578125,0.478759765625,0.36138916015625,-0.6082763671875,11.708212369125466,73.36802684763602,-90.24099472199862,0.26103899414989834,,,,3,0,3,3
1788940474.8909855,1441472010.0,-9.3828125,0.8359375,2.76171875,0.0078125,0.005859375,-0.037109375,21.0625,-7.8125,-30.875,21.0625,-7.8125,-30.875,0.05997048901766434,-0.5944841801371167,0.0818361431056065,0.7976809799006624,11.957981908090689,73.3820357029391,-179.67425139652147,0.51983642578125,0.478759765625,0.36138916015625,-0.6082763671875,11.708212369125466,73.36802684763602,-90.24099472199862,0.2552202231495806,,,,3,0,3,3
1788940474.8929386,1441476293.0,-9.34375,0.8359375,2.7265625,0.0078125,0.005859375,-0.04296875,20.5625,-6.0625,-31.75,20.5625,-6.0625,-31.75,0.059862352892242905,-0.5944757101860568,0.08188511529186675,0.7976903889345952,11.998817472991897,73.37919879284544,-179.62858814266517,0.51983642578125,0.478759765625,0.36138916015625,-0.6082763671875,11.708212369125466,73.36802684763602,-90.24099472199862,0.2770770806241212,,,,3,0,3,3
1788940474.8929386,1441479999.0,-9.34375,0.796875,2.80078125,0.00390625,0.009765625,-0.05078125,20.5625,-6.0625,-31.75,20.5625,-6.0625,-31.75,0.05980793407328585,-0.5944255097723259,0.08187070962287224,0.7977333584974639,12.00437687122344,73.37126042777763,-179.61748173269285,0.51971435546875,0.47869873046875,0.3614501953125,-0.60833740234375,11.64851522515277,73.35990038619758,-90.28846154493222,0.9881602764684204,,,,3,0,3,3
1788940474.9077163,1441484382.0,-9.34765625,0.76171875,2.7265625,-0.0078125,0.01171875,-0.05859375,20.5625,-6.0625,-31.75,20.5625,-6.0625,-31.75,0.0596855248398178,-0.5944355078702628,0.0818109429669567,0.7977412078603409,12.014394966040857,73.37088115021656,-179.59247408611355,0.51971435546875,0.47869873046875,0.3614501953125,-0.60833740234375,11.64851522515277,73.35990038619758,-90.28846154493222,0.9956877615932841,,,,3,0,3,3
1788940474.9096694,1441491764.0,-9.3828125,0.60546875,2.6484375,-0.0234375,0.009765625,-0.06640625,19.9375,-7.25,-33.6875,19.9375,-7.25,-33.6875,0.059804886945589567,-0.5946442943425624,0.08181244962721858,0.7975764927511687,11.997591306435444,73.4023297009293,-179.61875955814264,0.51953125,0.4786376953125,0.3616943359375,-0.60845947265625,11.535600107353314,73.39272664095934,-90.41900196890138,0.028296673185940653,,,,3,0,3,3
1788940474.9096694,1441496024.0,-9.3828125,0.53125,2.7265625,-0.03515625,0.001953125,-0.064453125,20.25,-7.4375,-31.9375,20.25,-7.4375,-31.9375,0.0599264761681701,-0.5946771881137869,0.08186791952629427,0.7975371484411129,11.988558848749118,73.40879354172635,-179.6422695673251,0.51953125,0.4786376953125,0.3616943359375,-0.60845947265625,11.535600107353314,73.39272664095934,-90.41900196890138,0.0,,,,3,0,3,3
1788940474.9253888,1441499730.0,-9.42578125,0.53125,2.76171875,-0.02734375,0.005859375,-0.064453125,20.25,-7.4375,-31.9375,20.25,-7.4375,-31.9375,0.0600452811779322,-0.5946918115698767,0.08193237454018569,0.7975106892463624,11.98213666054958,73.412616167914,-179.66371894467952,0.5194091796875,0.47845458984375,0.3619384765625,-0.6085205078125,11.408366000781315,73.39290587431057,-90.51988544263264,0.8132613600956503,,,,3,0,3,3
1788940474.9226515,1441503513.0,-9.4609375,0.53125,2.7265625,-0.029296875,0.021484375,-0.06640625,24.8125,-5.9375,-35.6875,24.8125,-5.9375,-35.6875,0.06011883708988986,-0.594755921955997,0.08162839782733872,0.7974885098817243,11.86968980913282,73.4229310533352,-179.75704708474137,0.5194091796875,0.47845458984375,0.3619384765625,-0.6085205078125,11.408366000781315,73.39290587431057,-90.51988544263264,0.8069136013452938,,,,3,0,3,3
1788940474.9247637,1441507666.0,-9.4609375,0.4921875,2.6875,-0.029296875,0.021484375,-0.06640625,24.8125,-5.9375,-35.6875,24.8125,-5.9375,-35.6875,0.06020894118602313,-0.5948424325360144,0.08129725481881721,0.7974510143042137,11.745525491387598,73.43663450414296,-179.86116955770726,0.5194091796875,0.47845458984375,0.3619384765625,-0.6085205078125,11.408366000781315,73.39290587431057,-90.51988544263264,0.8013205301799526,,,,3,0,3,3
1788940474.9332128,1441511172.0,-9.4609375,0.4140625,2.6875,-0.0390625,0.013671875,-0.068359375,24.8125,-5.9375,-35.6875,24.8125,-5.9375,-35.6875,0.06029362989668876,-0.5949041521745274,0.08100299981016042,0.7974285183896692,11.633203900775849,73.44667814181717,-179.95609478483124,0.51922607421875,0.478271484375,0.36224365234375,-0.608642578125,11.249699973166903,73.40860654316134,-90.66865111134419,0.7755412183457904,,,,3,0,3,3
1788940474.940293,1441515155.0,-9.42578125,0.37890625,2.6484375,-0.03515625,0.009765625,-0.064453125,23.8125,-6.75,-38.0,23.8125,-6.75,-38.0,0.06039812547957197,-0.5949830527951776,0.08068727668960592,0.7973937526125343,11.509931721493555,73.45940384310525,179.9382048234457,0.51922607421875,0.478271484375,0.36224365234375,-0.608642578125,11.249699973166903,73.40860654316134,-90.66865111134419,0.770035638345539,,,,3,0,2,3
1788940474.945089,1441518938.0,-9.38671875,0.30078125,2.609375,-0.03125,0.001953125,-0.072265625,23.8125,-6.75,-38.0,23.8125,-6.75,-38.0,0.060525785360044757,-0.5950514362159992,0.08038965138032958,0.7973631051878283,11.386367890938516,73.47091067355765,179.82879814246732,0.51910400390625,0.47808837890625,0.362548828125,-0.60870361328125,11.11099286295259,73.42142643467608,-90.787888883554,0.8221836043730995,,,,3,0,2,3
1788940474.9485595,1441523521.0,-9.421875,0.4140625,2.6484375,-0.01953125,-0.00390625,-0.0546875,23.8125,-6.75,-38.0,23.8125,-6.75,-38.0,0.060641266134068963,-0.5951171591027066,0.08006610935433063,0.7973378342434537,11.257007105422831,73.48180100105661,179.71671984025696,0.51910400390625,0.47808837890625,0.362548828125,-0.60870361328125,11.11099286295259,73.42142643467608,-90.787888883554,0.8177635456219949,,,,3,0,2,3
1788940474.9524946,1441526497.0,-9.42578125,0.453125,2.6875,-0.01953125,-0.00390625,-0.0546875,23.375,-7.4375,-36.75,23.375,-7.4375,-36.75,0.06075547486374798,-0.5951834929489526,0.07990200563381746,0.7972960877182692,11.179604482490879,73.49277429339946,179.64358414173697,0.51910400390625,0.47808837890625,0.362548828125,-0.60870361328125,11.11099286295259,73.42142643467608,-90.787888883554,0.8129535452492811,,,,3,0,2,3
1788940474.9552007,1441531880.0,-9.5,0.4140625,2.6875,-0.01953125,-0.00390625,-0.060546875,23.375,-7.4375,-36.75,23.375,-7.4375,-36.75,0.06097882238526171,-0.5953045936152633,0.07959920861465275,0.7972189097286854,11.033464687799475,73.51294729483718,179.50427771027634,0.51898193359375,0.47796630859375,0.36273193359375,-0.60882568359375,11.00284789853117,73.43541337633927,-90.9012426583118,0.4007217399125332,,,,3,0,2,3
1788940474.9608924,1441534686.0,-9.4609375,0.37890625,2.6484375,-0.02734375,-0.001953125,-0.05859375,23.375,-7.4375,-36.75,23.375,-7.4375,-36.75,0.06108422879760147,-0.5953743768173748,0.0794419992378048,0.7971744082562019,10.96027581649563,73.52422641775108,179.43551657192697,0.51898193359375,0.47796630859375,0.36273193359375,-0.60882568359375,11.00284789853117,73.43541337633927,-90.9012426583118,0.3943731629434777,,,,3,0,2,3
1788940474.9644482,1441538293.0,-9.46484375,0.37890625,2.6875,-0.01953125,-0.015625,-0.046875,23.375,-7.4375,-36.75,23.375,-7.4375,-36.75,0.06122896477433095,-0.5954255945210124,0.07924419613500572,0.7971447375733465,10.863589355930298,73.53333995104049,179.34333000690597,0.51885986328125,0.477783203125,0.3629150390625,-0.60894775390625,10.877673125655527,73.43443713590115,-91.01455678345746,0.6504751627184806,,,,3,0,2,3
1788940474.9665124,1441542622.0,-9.46484375,0.37890625,2.6875,-0.01953125,-0.015625,-0.046875,23.375,-7.4375,-36.75,23.375,-7.4375,-36.75,0.061403823978225594,-0.5954888124801401,0.07901092198814408,0.7971072191483572,10.748556127023194,73.54449512672757,179.23326630053216,0.51885986328125,0.477783203125,0.3629150390625,-0.60894775390625,10.877673125655527,73.43443713590115,-91.01455678345746,0.6434846304400644,,,,3,0,2,3
1788940474.9704728,1441546229.0,-9.421875,0.37890625,2.7265625,-0.01953125,-0.021484375,-0.037109375,20.25,-6.9375,-31.5625,20.25,-6.9375,-31.5625,0.061593815427857225,-0.59549568112639,0.07900582389504024,0.7970879345790661,10.70174939774126,73.5480102768303,179.1712965932729,0.51885986328125,0.477783203125,0.3629150390625,-0.60894775390625,10.877673125655527,73.43443713590115,-91.01455678345746,0.6289595074540661,,,,3,0,3,3
1788940474.9759088,1441550911.0,-9.46484375,0.37890625,2.6875,-0.02734375,-0.0234375,-0.029296875,20.25,-6.9375,-31.5625,20.25,-6.9375,-31.5625,0.06176044413658108,-0.5955512906965599,0.07898195169163684,0.7970358580369481,10.656399219718562,73.55812936764019,179.11434714710836,0.51885986328125,0.4775390625,0.363037109375,-0.6090087890625,10.778705698663709,73.41187042432838,-91.07955673406111,1.1421355869374097,,,,3,0,3,3
1788940474.981042,1441553918.0,-9.38671875,0.33984375,2.7265625,-0.021484375,-0.029296875,-0.01953125,20.125,-5.125,-32.0625,20.125,-5.125,-32.0625,0.06179197006005012,-0.5955267969280419,0.07878899845968974,0.7970708125997612,10.584988303921097,73.55483455602827,179.0561714341096,0.51885986328125,0.4775390625,0.363037109375,-0.6090087890625,10.778705698663709,73.41187042432838,-91.07955673406111,1.1429130357993855,,,,3,0,3,3
1788940474.9850454,1441558600.0,-9.3828125,0.33984375,2.6484375,-0.025390625,-0.033203125,-0.017578125,20.125,-5.125,-32.0625,20.125,-5.125,-32.0625,0.06183107132451897,-0.5955117460910909,0.07848479089500049,0.7971090367600725,10.475931312826846,73.55282601644421,178.9688995766567,0.5189208984375,0.47735595703125,0.36309814453125,-0.609130859375,10.710816976182594,73.41210667998668,-91.15594977493296,0.4942552890095127,,,,3,0,3,3
1788940474.98704,1441562354.0,-9.38671875,0.26171875,2.5703125,-0.025390625,-0.033203125,-0.017578125,20.125,-5.125,-32.0625,20.125,-5.125,-32.0625,0.06187262605435537,-0.5955188209897115,0.07825141213335127,0.7971234712961964,10.390243839761293,73.55406338503501,178.89901419371145,0.5189208984375,0.47735595703125,0.36309814453125,-0.609130859375,10.710816976182594,73.41210667998668,-91.15594977493296,0.4997332197799958,,,,3,0,3,3
1788940474.9975255,1441565936.0,-9.38671875,0.26171875,2.6875,-0.01171875,-0.03515625,-0.009765625,20.0,-5.375,-30.75,20.0,-5.375,-30.75,0.06193602077067293,-0.5954952193534536,0.07805238697947647,0.7971556924121428,10.309326397279753,73.55123354679635,178.82921574086856,0.5189208984375,0.47735595703125,0.36309814453125,-0.609130859375,10.710816976182594,73.41210667998668,-91.15594977493296,0.5017592062206718,,,,3,0,3,3
1788940474.9975255,1441570043.0,-9.3828125,0.4140625,2.7265625,0.005859375,-0.033203125,-0.00390625,20.0,-5.375,-30.75,20.0,-5.375,-30.75,0.0619834837941468,-0.5954480742785763,0.07785155486682187,0.7972068577097754,10.230775136866848,73.54481661739604,178.7631909409719,0.51898193359375,0.47723388671875,0.363037109375,-0.60919189453125,10.691272886059483,73.39014738248981,-91.16683838271585,0.7499331301972831,,,,3,0,3,3
1788940475.0016072,1441573425.0,-9.42578125,0.453125,2.76171875,0.01171875,-0.03515625,-0.005859375,21.3125,-5.4375,-30.5625,21.3125,-5.4375,-30.5625,0.06202475172897225,-0.5953902275068421,0.07769565058330423,0.7972620604561258,10.167986158486293,73.53684674197424,178.70971888043772,0.51898193359375,0.47723388671875,0.363037109375,-0.60919189453125,10.691272886059483,73.39014738248981,-91.16683838271585,0.7513352381143308,,,,3,0,3,3
1788940475.0056045,1441578008.0,-9.34375,0.4921875,2.76171875,0.013671875,-0.037109375,0.0,21.3125,-5.4375,-30.5625,21.3125,-5.4375,-30.5625,0.06204089378268255,-0.5952765769045968,0.07751410796489745,0.7973633347187453,10.100880713272353,73.52054643612102,178.65598658603574,0.51898193359375,0.47711181640625,0.36297607421875,-0.6092529296875,10.660311471849889,73.35933987711881,-91.17801741252292,1.3076207024527573,,,,3,0,3,3
1788940475.0062757,1441582361.0,-9.31640625,0.453125,2.7265625,0.013671875,-0.037109375,0.0,21.3125,-5.4375,-30.5625,21.3125,-5.4375,-30.5625,0.06208098243060106,-0.595202644335502,0.0773216537837324,0.7974340885945533,10.026061158403571,73.5101765414756,178.59355379839505,0.51898193359375,0.47711181640625,0.36297607421875,-0.6092529296875,10.660311471849889,73.35933987711881,-91.17801741252292,1.3096697956513956,,,,3,0,3,3
1788940475.0122,1441585944.0,-9.27734375,0.33984375,2.76171875,0.00390625,-0.0390625,0.009765625,20.1875,-6.0,-31.8125,20.1875,-6.0,-31.8125,0.062144435100023786,-0.5951191287070163,0.0771817180589751,0.7975050308496904,9.962460942446164,73.49880816578603,178.53608202565465,0.51898193359375,0.47711181640625,0.36297607421875,-0.6092529296875,10.660311471849889,73.35933987711881,-91.17801741252292,1.3099354590480912,,,,3,0,3,3
1788940475.0122,1441589450.0,-9.27734375,0.37890625,2.83984375,0.0078125,-0.03515625,0.0234375,20.1875,-6.0,-31.8125,20.1875,-6.0,-31.8125,0.06216700984068181,-0.5949993150884473,0.0771042574339526,0.7976001576086266,9.927697996304182,73.48186210828564,178.50558946571923,0.51910400390625,0.47705078125,0.36279296875,-0.609375,10.683045155272096,73.3474616966433,-91.18232777182628,0.7874953646812268,,,,3,0,3,3
1788940475.010247,1441593157.0,-9.31640625,0.4921875,2.83984375,0.025390625,-0.03515625,0.0234375,20.1875,-6.0,-31.8125,20.1875,-6.0,-31.8125,0.06215576819786638,-0.5948454622555164,0.07710225843126253,0.7977159759328836,9.924324928309899,73.45978586014058,178.50298525400484,0.51910400390625,0.47705078125,0.36279296875,-0.609375,10.683045155272096,73.3474616966433,-91.18232777182628,0.7848409115521547,,,,3,0,3,3
1788940475.025614,1441597739.0,-9.27734375,0.53125,2.80078125,0.029296875,-0.03125,0.01953125,19.8125,-5.625,-32.1875,19.8125,-5.625,-32.1875,0.06211289620792979,-0.5947021196513151,0.0770248775150916,0.7978336576321413,9.904454152692853,73.43867772869454,178.4927030980594,0.5191650390625,0.47705078125,0.36260986328125,-0.609375,10.728434585054815,73.31832789272305,-91.12824569821916,1.2421229155856435,,,,3,0,3,3
1788940475.021679,1441602622.0,-9.23828125,0.53125,2.80078125,0.01171875,-0.02734375,0.021484375,19.8125,-5.625,-32.1875,19.8125,-5.625,-32.1875,0.062037568429810196,-0.5945541116777491,0.07691970477445244,0.797959966043291,9.883185003334956,73.41645450224661,178.4859642454134,0.5191650390625,0.47705078125,0.36260986328125,-0.609375,10.728434585054815,73.31832789272305,-91.12824569821916,1.2465668432177441,,,,3,0,3,3
1788940475.025614,1441605275.0,-9.2734375,0.453125,2.83984375,0.01171875,-0.02734375,0.021484375,22.875,-7.625,-37.8125,22.875,-7.625,-37.8125,0.06204651985596248,-0.594445001205609,0.07696256405960776,0.798036423760719,9.891119653869396,73.40109702677894,178.4894117913821,0.5191650390625,0.47705078125,0.36260986328125,-0.609375,10.728434585054815,73.31832789272305,-91.12824569821916,1.24395030179206,,,,3,0,2,3
1788940475.025614,1441608982.0,-9.2734375,0.453125,2.83984375,0.015625,-0.01953125,0.017578125,22.875,-7.625,-37.8125,22.875,-7.625,-37.8125,0.06206900007349033,-0.5943042603718907,0.07702394168744413,0.7981335713654866,9.900715945192527,73.38143628081183,178.49182048536545,0.51922607421875,0.47705078125,0.36248779296875,-0.60943603515625,10.753772125725174,73.3134849928858,-91.12161037100736,0.9484825197304496,,,,3,0,2,3
1788940475.036706,1441613364.0,-9.31640625,0.68359375,2.76171875,0.02734375,-0.015625,0.017578125,22.875,-7.625,-37.8125,22.875,-7.625,-37.8125,0.06196993829892851,-0.5942373301030035,0.07728016276449974,0.7981663352349393,10.004487264604604,73.37114136158444,178.5825077931452,0.51922607421875,0.47705078125,0.36248779296875,-0.60943603515625,10.753772125725174,73.3134849928858,-91.12161037100736,0.9420736949648562,,,,3,0,2,3
1788940475.040641,1441617118.0,-9.34375,0.64453125,2.76171875,0.02734375,-0.015625,0.017578125,23.1875,-6.6875,-37.6875,23.1875,-6.6875,-37.6875,0.061809317157856286,-0.5941731270555067,0.0772979449623266,0.7982248624931206,10.045928367211202,73.36001977550757,178.6355417141578,0.51922607421875,0.47705078125,0.36248779296875,-0.60943603515625,10.753772125725174,73.3134849928858,-91.12161037100736,0.9487810468921016,,,,3,0,2,3
1788940475.0455298,1441622700.0,-9.38671875,0.5703125,2.83984375,0.021484375,-0.017578125,0.01171875,23.1875,-6.6875,-37.6875,23.1875,-6.6875,-37.6875,0.06172580125592252,-0.5940229924661103,0.07720507088672547,0.7983520444705439,10.030357109846774,73.33743286315476,178.6341570990722,0.519287109375,0.47711181640625,0.3623046875,-0.6094970703125,10.807121661120915,73.31083439208165,-91.09731147366531,0.3107594771508205,,,,3,0,2,3
1788940475.047483,1441624230.0,-9.42578125,0.60546875,2.80078125,0.017578125,-0.013671875,0.013671875,23.1875,-6.6875,-37.6875,23.1875,-6.6875,-37.6875,0.061673577439206956,-0.5939963486092822,0.0771806329673285,0.7983782672264149,10.033863859081807,73.33294382988205,178.6439074758778,0.519287109375,0.47711181640625,0.3623046875,-0.6094970703125,10.807121661120915,73.31083439208165,-91.09731147366531,0.32159493689371266,,,,3,0,2,3
1788940475.0562818,1441628913.0,-9.50390625,0.60546875,2.7265625,0.0234375,-0.0078125,0.009765625,23.1875,-6.6875,-37.6875,23.1875,-6.6875,-37.6875,0.06153303336200975,-0.5940690764330928,0.07712978481120797,0.7983399116455211,10.0532903490745,73.34145704408695,178.67920947289255,0.519287109375,0.47711181640625,0.3621826171875,-0.6094970703125,10.829641441411828,73.28555901918635,-91.0616179631708,1.136744470513141,,,,3,0,2,3
1788940475.0522888,1441632996.0,-9.5390625,0.53125,2.76171875,0.01171875,-0.009765625,0.01171875,23.1875,-6.6875,-37.6875,23.1875,-6.6875,-37.6875,0.06147413794689508,-0.5941051914763773,0.07697783574592877,0.798332239502061,10.019561067876978,73.34561101103323,178.6628924645708,0.519287109375,0.47711181640625,0.3621826171875,-0.6094970703125,10.829641441411828,73.28555901918635,-91.0616179631708,1.1454124792586926,,,,3,0,2,3
1788940475.0562818,1441635872.0,-9.54296875,0.53125,2.80078125,0.01171875,-0.009765625,0.01171875,23.5,-7.375,-36.0,23.5,-7.375,-36.0,0.06145102755986277,-0.5940979878770051,0.0771388538331527,0.7983238373252036,10.076626664211005,73.34456074260065,178.70859349849903,0.519287109375,0.47711181640625,0.3621826171875,-0.6094970703125,10.829641441411828,73.28555901918635,-91.0616179631708,1.1402859272084225,,,,3,0,2,3
1788940475.0562818,1441640555.0,-9.58203125,0.5703125,2.7265625,0.017578125,-0.009765625,0.015625,23.5,-7.375,-36.0,23.5,-7.375,-36.0,0.061400089843967276,-0.5941542407079669,0.07735600449160335,0.7982648782108523,10.160685029545936,73.35227118531255,178.77908546979418,0.519287109375,0.4771728515625,0.362060546875,-0.6094970703125,10.86890411023495,73.27512756976351,-91.02612212271022,1.302299472181506,,,,3,0,2,3
1788940475.0719283,1441643761.0,-9.58203125,0.453125,2.6484375,0.01171875,-0.0078125,0.017578125,19.125,-6.125,-32.6875,19.125,-6.125,-32.6875,0.06139933558772537,-0.5942310802592417,0.07732007173011021,0.7982112197601404,10.152122918501444,73.36314962839947,178.77370108764202,0.519287109375,0.4771728515625,0.362060546875,-0.6094970703125,10.86890411023495,73.27512756976351,-91.02612212271022,1.304043923473596,,,,3,0,3,3
1788940475.0719283,1441648244.0,-9.578125,0.4140625,2.6875,0.0078125,-0.01953125,0.015625,19.125,-6.125,-32.6875,19.125,-6.125,-32.6875,0.061425385113111734,-0.5943030931634072,0.07721355154874285,0.7981659119364483,10.11425908865251,73.37356954922312,178.74261124151053,0.51934814453125,0.4771728515625,0.36199951171875,-0.60955810546875,10.882886065341896,73.28290381578965,-91.03745375356897,0.6957870483958066,,,,3,0,3,3
1788940475.0719283,1441651621.0,-9.578125,0.453125,2.5703125,0.0078125,-0.01953125,0.015625,19.125,-6.125,-32.6875,19.125,-6.125,-32.6875,0.061419697688282815,-0.5943724713553997,0.07719219661353777,0.7981167526200234,10.111261830621544,73.38334647389881,178.74198156492398,0.51934814453125,0.4771728515625,0.36199951171875,-0.60955810546875,10.882886065341896,73.28290381578965,-91.03745375356897,0.6989338545592866,,,,3,0,3,3
1788940475.0719283,1441655604.0,-9.50390625,0.37890625,2.5703125,0.015625,-0.02734375,0.01953125,19.875,-6.0,-31.875,19.875,-6.0,-31.875,0.061445258324707326,-0.5944341978342792,0.07715384450933073,0.7980725211106802,10.095088127422134,73.39240054502626,178.72699206912537,0.51934814453125,0.4771728515625,0.36199951171875,-0.60955810546875,10.882886065341896,73.28290381578965,-91.03745375356897,0.7007882865429089,,,,3,0,3,3
1788940475.0719283,1441660286.0,-9.50390625,0.30078125,2.609375,0.02734375,-0.033203125,0.01953125,19.875,-6.0,-31.875,19.875,-6.0,-31.875,0.06152587104715446,-0.5944752886227773,0.0770856563491781,0.7980422921086143,10.05545381733315,73.3991564345828,178.68643345225385,0.5194091796875,0.4771728515625,0.36181640625,-0.60955810546875,10.927918490375273,73.25384209614661,-90.98382447433146,1.1873913745072235,,,,3,0,3,3
1788940475.0877476,1441663669.0,-9.5,0.453125,2.6875,0.044921875,-0.037109375,0.033203125,20.4375,-5.8125,-30.375,20.4375,-5.8125,-30.375,0.06155256212608168,-0.5945110657311138,0.07710996803307829,0.7980112327836669,10.058276586394763,73.40462833026476,178.6851386285311,0.5194091796875,0.4771728515625,0.36181640625,-0.60955810546875,10.927918490375273,73.25384209614661,-90.98382447433146,1.18589944794476,,,,3,0,3,3
1788940475.0877476,1441668022.0,-9.4609375,0.453125,2.5703125,0.044921875,-0.037109375,0.033203125,20.4375,-5.8125,-30.375,20.4375,-5.8125,-30.375,0.06156916651115454,-0.594562791645795,0.07719051899137619,0.7979636259274747,10.082252612086391,73.41233839063506,178.70123167242272,0.5194091796875,0.4771728515625,0.36181640625,-0.60955810546875,10.927918490375273,73.25384209614661,-90.98382447433146,1.182981400180256,,,,3,0,3,3
1788940475.0854907,1441671229.0,-9.421875,0.4140625,2.609375,0.052734375,-0.04296875,0.029296875,20.4375,-5.8125,-30.375,20.4375,-5.8125,-30.375,0.061614265010017606,-0.5945888552467855,0.07722287680364454,0.7979375933378259,10.082960026848486,73.41667161673436,178.69562812915598,0.51947021484375,0.47723388671875,0.361572265625,-0.60968017578125,10.983592003980043,73.25015190874142,-90.97145716443157,0.437022769657062,,,,3,0,3,3
1788940475.0877476,1441675311.0,-9.421875,0.5703125,2.6875,0.05859375,-0.05078125,0.0390625,20.5625,-7.5,-31.9375,20.5625,-7.5,-31.9375,0.06161693535242488,-0.5945193763125249,0.07754932744043516,0.7979574965374268,10.185292988417407,73.40732491049863,178.7707411009434,0.51947021484375,0.47723388671875,0.361572265625,-0.60968017578125,10.983592003980043,73.25015190874142,-90.97145716443157,0.3973875302903594,,,,3,0,3,3
1788940475.1035128,1441679894.0,-9.4609375,0.5703125,2.609375,0.060546875,-0.0546875,0.03515625,20.5625,-7.5,-31.9375,20.5625,-7.5,-31.9375,0.06163205147988321,-0.5944659635272727,0.07788733779467329,0.7979632015633495,10.288925585782858,73.40041421068668,178.84521238353204,0.51953125,0.477294921875,0.3612060546875,-0.60980224609375,11.06147545038892,73.22126359609874,-90.923810405096,0.29814241705104666,,,,3,0,3,3
1788940475.1035128,1441683077.0,-9.42578125,0.64453125,2.6875,0.0625,-0.0625,0.033203125,20.5625,-7.9375,-32.0,20.5625,-7.9375,-32.0,0.06164072064588165,-0.594391216138176,0.07814311084855344,0.797993206714786,10.366632239470652,73.39024106777379,178.90100722053447,0.51953125,0.477294921875,0.3612060546875,-0.60980224609375,11.06147545038892,73.22126359609874,-90.923810405096,0.25160313210401364,,,,3,0,3,3
1788940475.1035128,1441687383.0,-9.46484375,0.68359375,2.80078125,0.0625,-0.0703125,0.033203125,20.5625,-7.9375,-32.0,20.5625,-7.9375,-32.0,0.061647348849064906,-0.5942448052439842,0.07849606947329524,0.7980670917270456,10.473300222917102,73.369947771096,178.9777829123366,0.51959228515625,0.477294921875,0.36077880859375,-0.60992431640625,11.133467416180423,73.16511269276579,-90.85870301837053,1.1544790956436422,,,,3,0,3,3
1788940475.1015596,1441692513.0,-9.42578125,0.64453125,2.83984375,0.0625,-0.0703125,0.033203125,20.5625,-7.9375,-32.0,20.5625,-7.9375,-32.0,0.06166612341692815,-0.5940517171580574,0.07891685769838129,0.7981678871862141,10.596877574862281,73.34322278800379,179.06478759247918,0.51959228515625,0.477294921875,0.36077880859375,-0.60992431640625,11.133467416180423,73.16511269276579,-90.85870301837053,1.1361595557507715,,,,3,0,3,3
1788940475.1145194,1441694719.0,-9.42578125,0.68359375,2.91796875,0.05859375,-0.05859375,0.025390625,19.5625,-5.875,-34.0,19.5625,-5.875,-34.0,0.0616409017861854,-0.5939469834322657,0.07893803180840314,0.7982456809985966,10.605447241793044,73.32800801995653,179.07346539822842,0.51959228515625,0.477294921875,0.36077880859375,-0.60992431640625,11.133467416180423,73.16511269276579,-90.85870301837053,1.1345025052961122,,,,3,0,3,3
1788940475.1233735,1441698425.0,-9.3828125,0.72265625,2.953125,0.056640625,-0.05078125,0.02734375,19.5625,-5.875,-34.0,19.5625,-5.875,-34.0,0.061592602915470335,-0.5937741636470907,0.0790004630006628,0.7983717935254075,10.629965384367292,73.30284775483929,179.0964477146318,0.5196533203125,0.47735595703125,0.3603515625,-0.610107421875,11.213420555979818,73.1353181611924,-90.82338518379709,0.915856868942789,,,,3,0,3,3
1788940475.121652,1441703008.0,-9.34765625,0.72265625,3.0703125,0.05859375,-0.046875,0.0234375,19.5625,-5.875,-34.0,19.5625,-5.875,-34.0,0.06157407296954699,-0.5935574771566717,0.07908760697238265,0.7985257073336649,10.653594868617569,73.27187083092664,179.11396961009171,0.5196533203125,0.47735595703125,0.3603515625,-0.610107421875,11.213420555979818,73.1353181611924,-90.82338518379709,0.9083301742459793,,,,3,0,3,3
1788940475.125587,1441706761.0,-9.3125,0.76171875,3.0703125,0.05859375,-0.046875,0.0234375,22.875,-8.125,-37.875,22.875,-8.125,-37.875,0.0615679334326547,-0.5933807625125086,0.07929430069255029,0.7986370102434431,10.714191811296509,73.24687658196382,179.15768535289345,0.5196533203125,0.47735595703125,0.3603515625,-0.610107421875,11.213420555979818,73.1353181611924,-90.82338518379709,0.8973770478012798,,,,3,0,2,3
1788940475.1311977,1441712344.0,-9.2734375,0.76171875,3.109375,0.05859375,-0.033203125,0.0078125,22.875,-8.125,-37.875,22.875,-8.125,-37.875,0.06159724459209919,-0.5931462609665399,0.07956106873530251,0.7987824039760583,10.783216443280923,73.2141954125685,179.20184784781176,0.5196533203125,0.4774169921875,0.36004638671875,-0.61029052734375,11.259837494121808,73.12192132895578,-90.82356984516015,0.031164733237335245,,,,3,0,2,3
1788940475.1351328,1441715027.0,-9.234375,0.72265625,3.14453125,0.05859375,-0.015625,0.0,22.875,-8.125,-37.875,22.875,-8.125,-37.875,0.06162486127468264,-0.593049973098416,0.0796722717796067,0.798840681857353,10.80839389683861,73.20098676116869,179.2153988966395,0.5196533203125,0.4774169921875,0.36004638671875,-0.61029052734375,11.259837494121808,73.12192132895578,-90.82356984516015,0.0,,,,3,0,2,3
1788940475.1331797,1441722510.0,-9.234375,0.72265625,3.14453125,0.044921875,0.0,-0.009765625,22.875,-8.125,-37.875,22.875,-8.125,-37.875,0.061696135244225125,-0.592833892561545,0.07992235286638553,0.798970575327123,10.86279285962563,73.17147303799328,179.24289721820637,0.51947021484375,0.47747802734375,0.35986328125,-0.61041259765625,11.258857799644241,73.09608495907615,-90.83025242415368,1.2260997543214842,,,,3,0,2,3
1788940475.1517587,1441726293.0,-9.234375,0.796875,3.109375,0.041015625,0.015625,-0.01171875,22.875,-8.125,-37.875,22.875,-8.125,-37.875,0.06171411930067208,-0.5927512961883209,0.08006813272943253,0.7990158712236134,10.901725277917967,73.16011338172083,179.26817512974654,0.51947021484375,0.47747802734375,0.35986328125,-0.61041259765625,11.258857799644241,73.09608495907615,-90.83025242415368,1.2211291017151809,,,,3,0,2,3
1788940475.1535134,1441729799.0,-9.1953125,0.64453125,3.109375,0.037109375,0.03125,-0.025390625,22.875,-8.125,-37.875,22.875,-8.125,-37.875,0.061768951314577866,-0.5926938854862983,0.08014656875692473,0.7990463580275825,10.911614814546805,73.15277046415005,179.26698109247656,0.519287109375,0.4776611328125,0.35986328125,-0.6104736328125,11.266797762311368,73.12567987191169,-90.86050187511977,0.8528467937464174,,,,3,0,2,3
1788940475.1515603,1441734582.0,-9.234375,0.60546875,3.03125,0.015625,0.048828125,-0.029296875,22.875,-8.125,-37.875,22.875,-8.125,-37.875,0.06182352638432712,-0.5926530668358205,0.08021594623611078,0.7990654515901363,10.919362590595544,73.14777468200963,179.26444743796958,0.519287109375,0.4776611328125,0.35986328125,-0.6104736328125,11.266797762311368,73.12567987191169,-90.86050187511977,0.8466189947254081,,,,3,0,2,3
1788940475.167116,1441742441.0,-9.38671875,0.68359375,2.80078125,0.017578125,0.060546875,-0.02734375,23.0625,-7.5625,-34.75,23.0625,-7.5625,-34.75,0.06180316373820846,-0.592814385001345,0.08059177470992428,0.7989095316345463,11.050874304941091,73.1707419097112,179.3670382264993,0.51904296875,0.477783203125,0.36004638671875,-0.6104736328125,11.2219784780562,73.15796387936219,-90.91430114579876,0.8849516480195426,,,,3,0,2,3
1788940475.160345,1441745447.0,-9.34375,0.64453125,2.91796875,0.025390625,0.060546875,-0.033203125,19.6875,-7.8125,-31.4375,19.6875,-7.8125,-31.4375,0.061850929154618865,-0.5928491173358361,0.08073957030130473,0.7988651378201398,11.08846080199723,73.17645023263364,179.3886090363381,0.51904296875,0.477783203125,0.36004638671875,-0.6104736328125,11.2219784780562,73.15796387936219,-90.91430114579876,0.8781982574146718,,,,3,0,3,3
1788940475.167116,1441750130.0,-9.4609375,0.64453125,2.83984375,0.013671875,0.05859375,-0.041015625,19.6875,-7.8125,-31.4375,19.6875,-7.8125,-31.4375,0.06192357722774847,-0.5929473498766656,0.08094937601663321,0.7987653656613286,11.1428470457103,73.1915703566105,179.41996767498023,0.518798828125,0.47796630859375,0.36016845703125,-0.6104736328125,11.204872369759332,73.19248994450794,-90.95086455784353,0.8064107824299263,,,,3,0,3,3
1788940475.165141,1441753913.0,-9.46484375,0.5703125,2.6875,0.013671875,0.072265625,-0.041015625,20.9375,-7.4375,-31.5,20.9375,-7.4375,-31.5,0.061989962724152005,-0.5931121802649422,0.08108581427547072,0.7986239896635392,11.17820007989917,73.21601419537491,179.4389913738861,0.518798828125,0.47796630859375,0.36016845703125,-0.6104736328125,11.204872369759332,73.19248994450794,-90.95086455784353,0.7991845137446633,,,,3,0,3,3
1788940475.167116,1441758066.0,-9.4609375,0.60546875,2.609375,0.013671875,0.072265625,-0.041015625,20.9375,-7.4375,-31.5,20.9375,-7.4375,-31.5,0.06205079610764075,-0.5933076037567336,0.08121728940650938,0.7984607303608048,11.21468651537445,73.24472828812826,179.4600792509061,0.518798828125,0.47796630859375,0.36016845703125,-0.6104736328125,11.204872369759332,73.19248994450794,-90.95086455784353,0.7939085693535314,,,,3,0,3,3
1788940475.1832297,1441761772.0,-9.4609375,0.60546875,2.6484375,0.0078125,0.0625,-0.0390625,20.9375,-7.4375,-31.5,20.9375,-7.4375,-31.5,0.06209707957287588,-0.593458534550202,0.08133898672894736,0.7983325683673156,11.24956935887288,73.2669106608848,179.48146771915685,0.5185546875,0.4781494140625,0.36041259765625,-0.61041259765625,11.173983929238384,73.24061381843423,-90.99354049927756,0.5727317653840686,,,,3,0,3,3
1788940475.1832297,1441765155.0,-9.50390625,0.60546875,2.6875,0.005859375,0.060546875,-0.03125,20.125,-8.0625,-32.75,20.125,-8.0625,-32.75,0.06213652922556101,-0.5935779964636906,0.08147037618359973,0.7982272807004622,11.287840581095159,73.28453018533149,179.5059402389324,0.5185546875,0.4781494140625,0.36041259765625,-0.61041259765625,11.173983929238384,73.24061381843423,-90.99354049927756,0.5675394083674569,,,,3,0,3,3
1788940475.1832297,1441769061.0,-9.5390625,0.60546875,2.6484375,0.005859375,0.0546875,-0.0390625,20.125,-8.0625,-32.75,20.125,-8.0625,-32.75,0.06219507945329109,-0.5937204757588515,0.08160031798830625,0.798103475033588,11.322265006808863,73.30568973064705,179.52516639774504,0.518310546875,0.478271484375,0.36065673828125,-0.6103515625,11.126073546285996,73.27397649125622,-91.0363232564728,0.8842874638327395,,,,3,0,3,3
1788940475.1879683,1441773521.0,-9.5390625,0.53125,2.6875,-0.005859375,0.046875,-0.0390625,20.9375,-6.0,-31.375,20.9375,-6.0,-31.375,0.06225467512104325,-0.5939188326705885,0.08138968751961403,0.7979727403804205,11.249318358375975,73.33460029246973,179.4650920581315,0.518310546875,0.478271484375,0.36065673828125,-0.6103515625,11.126073546285996,73.27397649125622,-91.0363232564728,0.8846748388975744,,,,3,0,3,3
1788940475.1901817,1441776797.0,-9.5390625,0.60546875,2.6484375,-0.005859375,0.046875,-0.0390625,20.9375,-6.0,-31.375,20.9375,-6.0,-31.375,0.062258227721879694,-0.5940792295707408,0.08129423485917907,0.7978627886123191,11.224834736308932,73.35739882539417,179.44851849753854,0.518310546875,0.478271484375,0.36065673828125,-0.6103515625,11.126073546285996,73.27397649125622,-91.0363232564728,0.8879430636087579,,,,3,0,3,3
1788940475.199036,1441781580.0,-9.50390625,0.64453125,2.6484375,0.005859375,0.046875,-0.05078125,20.9375,-6.0,-31.375,20.9375,-6.0,-31.375,0.06226237119005338,-0.5943098476669999,0.08119819268812992,0.7977004798820172,11.203076332134087,73.39019794149928,179.4348195526876,0.51812744140625,0.47833251953125,0.36090087890625,-0.6103515625,11.06389815231972,73.3129259987259,-91.10838939658433,0.463813474611779,,,,3,0,3,3
1788940475.199036,1441785163.0,-9.5,0.64453125,2.76171875,0.0,0.04296875,-0.0546875,20.625,-6.375,-31.0625,20.625,-6.375,-31.0625,0.06222343447680553,-0.5943886189014908,0.0812807880152716,0.7976364130491447,11.242472610127438,73.40091795468568,179.47078307372163,0.51812744140625,0.47833251953125,0.36090087890625,-0.6103515625,11.06389815231972,73.3129259987259,-91.10838939658433,0.4693942577945136,,,,3,0,3,3
1788940475.2147315,1441788669.0,-9.50390625,0.64453125,2.80078125,0.00390625,0.044921875,-0.05859375,20.625,-6.375,-31.0625,20.625,-6.375,-31.0625,0.062198057512384955,-0.594410266377545,0.08135139034973339,0.7976150626428937,11.272265385416569,73.40368780356874,179.49689455217646,0.51788330078125,0.4783935546875,0.36114501953125,-0.61041259765625,10.981383889059833,73.3547908916395,-91.2105654849045,0.0,,,,3,0,3,3
1788940475.2107964,1441792852.0,-9.50390625,0.72265625,2.6875,0.001953125,0.044921875,-0.064453125,20.625,-6.375,-31.0625,20.625,-6.375,-31.0625,0.06219113501928965,-0.594550423437223,0.0814192473022839,0.797504208693823,11.302168169136097,73.42357453429044,179.52208024922388,0.51788330078125,0.4783935546875,0.36114501953125,-0.61041259765625,10.981383889059833,73.3547908916395,-91.2105654849045,0.0,,,,3,0,3,3
1788940475.2147315,1441796605.0,-9.5,0.796875,2.6484375,0.001953125,0.044921875,-0.064453125,20.125,-7.5625,-32.6875,20.125,-7.5625,-32.6875,0.06222976968765918,-0.5946563680768735,0.08151944748014492,0.7974119633870405,11.330265398506315,73.43925379099932,179.5389845208912,0.51788330078125,0.4783935546875,0.36114501953125,-0.61041259765625,10.981383889059833,73.3547908916395,-91.2105654849045,0.0,,,,3,0,3,3
1788940475.221605,1441802388.0,-9.46484375,0.64453125,2.6484375,-0.017578125,0.037109375,-0.072265625,20.125,-7.5625,-32.6875,20.125,-7.5625,-32.6875,0.06232247133494751,-0.5948284476372824,0.08160522517988042,0.79726759288928,11.343919427416514,73.46510206753322,179.53833511169563,0.517578125,0.4783935546875,0.3614501953125,-0.61041259765625,10.867565905922893,73.3738996853096,-91.30167685769187,0.8766795867795131,,,,3,0,3,3
1788940475.2304018,1441804894.0,-9.46484375,0.5703125,2.76171875,-0.03125,0.03515625,-0.07421875,20.125,-7.5625,-32.6875,20.125,-7.5625,-32.6875,0.06237544273570373,-0.5948694290525295,0.08164538901618659,0.7972287607548023,11.346242523994857,73.47170711150693,179.53309094729335,0.517578125,0.4783935546875,0.3614501953125,-0.61041259765625,10.867565905922893,73.3738996853096,-91.30167685769187,0.8735210106810755,,,,3,0,3,3
1788940475.2304018,1441808400.0,-9.46484375,0.64453125,2.80078125,-0.017578125,0.03515625,-0.076171875,20.125,-7.5625,-32.6875,20.125,-7.5625,-32.6875,0.062436680589107056,-0.5949020055403136,0.08171631898707525,0.7971923907892806,11.356203928361976,73.47725163322522,179.53225618658342,0.51739501953125,0.478271484375,0.36175537109375,-0.6104736328125,10.734006213146841,73.39248915966455,-91.42168806866273,0.9593367918186997,,,,3,0,3,3
1788940475.2284486,1441812830.0,-9.46484375,0.72265625,2.76171875,-0.017578125,0.03515625,-0.076171875,20.125,-7.5625,-32.6875,20.125,-7.5625,-32.6875,0.06248779019041364,-0.5949649701184297,0.08180350724301692,0.7971324523639948,11.375245197118891,73.48698851924571,179.5400597718582,0.51739501953125,0.478271484375,0.36175537109375,-0.6104736328125,10.734006213146841,73.39248915966455,-91.42168806866273,0.9573279640377448,,,,3,0,3,3
1788940475.2304018,1441816136.0,-9.3828125,0.5703125,2.80078125,-0.01953125,0.037109375,-0.076171875,22.6875,-7.875,-39.25,22.6875,-7.875,-39.25,0.06254038218716848,-0.5949467581630841,0.08163896558827756,0.7971587889779526,11.308483535391662,73.48503864618895,179.48248398701043,0.51739501953125,0.478271484375,0.36175537109375,-0.6104736328125,10.734006213146841,73.39248915966455,-91.42168806866273,0.9528430894051014,,,,3,0,2,3
1788940475.2464857,1441820519.0,-9.42578125,0.53125,2.83984375,-0.0390625,0.0390625,-0.0859375,22.6875,-7.875,-39.25,22.6875,-7.875,-39.25,0.06264286752233224,-0.5949355484217903,0.08135556687572952,0.7971880807632361,11.19159672793663,73.48467772945013,179.3804835968513,0.51715087890625,0.47821044921875,0.36212158203125,-0.61053466796875,10.593954150790777,73.42981422892632,-91.56077796619827,0.7348260218134126,,,,3,0,2,3
1788940475.249461,1441824225.0,-9.3828125,0.4140625,2.7265625,-0.03515625,0.0390625,-0.080078125,22.6875,-7.875,-39.25,22.6875,-7.875,-39.25,0.06279370856546823,-0.5950257934089128,0.08105244742626752,0.797139734368386,11.061201263812904,73.49936221870027,179.26284284413967,0.51715087890625,0.47821044921875,0.36212158203125,-0.61053466796875,10.593954150790777,73.42981422892632,-91.56077796619827,0.7228042128040238,,,,3,0,2,3
1788940475.249461,1441832461.0,-9.3828125,0.4140625,2.76171875,-0.0234375,0.03515625,-0.076171875,23.1875,-6.75,-38.0625,23.1875,-6.75,-38.0625,0.06303462784089332,-0.5951603729148905,0.08040171330942444,0.7970861501128204,10.797907314286944,73.52112065013709,179.03360577831484,0.51690673828125,0.47808837890625,0.36248779296875,-0.610595703125,10.436628537448968,73.45214542746639,-91.70022473462281,0.9513103147964642,,,,3,0,2,3
1788940475.2622104,1441838074.0,-9.34765625,0.37890625,2.76171875,-0.0078125,0.033203125,-0.083984375,23.1875,-6.75,-38.0625,23.1875,-6.75,-38.0625,0.06325280305476491,-0.5952408264572734,0.07998334530887564,0.7970508803692387,10.612930941961102,73.53494744713397,178.86531243609244,0.51666259765625,0.47802734375,0.36279296875,-0.6107177734375,10.298352164791101,73.4884990533138,-91.85193633582507,0.35488963812646795,,,,3,0,2,3
1788940475.2602572,1441847586.0,-9.31640625,0.4140625,2.6875,-0.015625,0.0390625,-0.072265625,23.1875,-6.75,-38.0625,23.1875,-6.75,-38.0625,0.06352405002175995,-0.5954655652522044,0.07926192631744185,0.796933499549463,10.321677335809193,73.5693885105566,178.61161975528404,0.51666259765625,0.47802734375,0.36279296875,-0.6107177734375,10.298352164791101,73.4884990533138,-91.85193633582507,0.3402283425044081,,,,3,0,2,3
1788940475.2764175,1441852799.0,-9.31640625,0.453125,2.7265625,-0.005859375,0.03515625,-0.0703125,19.875,-7.0,-31.9375,19.875,-7.0,-31.9375,0.06374297981884344,-0.5955201395241582,0.07938882014859656,0.7968626049579409,10.312567220421121,73.58021464177567,178.57420932912544,0.516357421875,0.47796630859375,0.36309814453125,-0.61077880859375,10.156841547711085,73.5041348060911,-91.97504477535473,1.0601954390993922,,,,3,0,3,3
1788940475.2783706,1441859058.0,-9.34765625,0.53125,2.6484375,0.0,0.0234375,-0.0703125,20.125,-5.125,-32.0625,20.125,-5.125,-32.0625,0.06385714043219323,-0.5956471417586563,0.07895880010903725,0.7968012650692188,10.149473256113676,73.59898213184567,178.43738750437805,0.51611328125,0.4779052734375,0.3634033203125,-0.61083984375,10.026501752705956,73.52866861322566,-92.0981456091096,1.1513466634833496,,,,3,0,3,3
1788940475.2764175,1441862964.0,-9.38671875,0.53125,2.6484375,-0.01171875,0.02734375,-0.0703125,20.125,-5.125,-32.0625,20.125,-5.125,-32.0625,0.06391060987830632,-0.5957390096311763,0.0786746504598753,0.7967564030013595,10.0470903488574,73.61219164579076,178.35418311232235,0.51611328125,0.4779052734375,0.3634033203125,-0.61083984375,10.026501752705956,73.52866861322566,-92.0981456091096,1.1534073337357997,,,,3,0,3,3
1788940475.2958586,1441871224.0,-9.4609375,0.5703125,2.6484375,-0.0078125,0.0234375,-0.064453125,20.0625,-7.75,-31.0,20.0625,-7.75,-31.0,0.06407769160310188,-0.5958943091538758,0.07888088516946219,0.7966064446837755,10.079750865911782,73.63687826983035,178.35648682932572,0.51593017578125,0.47784423828125,0.3636474609375,-0.6109619140625,9.910322069857969,73.56122052180172,-92.23239618007631,0.5316239013786745,,,,3,0,3,3
1788940475.3006842,1441875007.0,-9.50390625,0.53125,2.609375,-0.013671875,0.01953125,-0.06640625,20.3125,-7.375,-31.25,20.3125,-7.375,-31.25,0.06415476704566381,-0.5959849324423745,0.07894316934292067,0.7965262721223134,10.084757771363138,73.65091096433832,178.35023274404972,0.51593017578125,0.47784423828125,0.3636474609375,-0.6109619140625,9.910322069857969,73.56122052180172,-92.23239618007631,0.5238311643151776,,,,3,0,3,3
1788940475.304693,1441878513.0,-9.46484375,0.53125,2.6484375,-0.015625,0.013671875,-0.06640625,20.3125,-7.375,-31.25,20.3125,-7.375,-31.25,0.06422494462134368,-0.5960461546985898,0.07901099834400162,0.796468078517962,10.09220010042387,73.66067397126938,178.34646248898605,0.5157470703125,0.47772216796875,0.3638916015625,-0.61102294921875,9.786135432026457,73.56685262950576,-92.33691377898528,0.9901570864962457,,,,3,0,3,3
1788940475.3082738,1441882696.0,-9.4609375,0.5703125,2.6484375,-0.015625,0.01171875,-0.072265625,20.3125,-7.375,-31.25,20.3125,-7.375,-31.25,0.06430615035478826,-0.5961111701669348,0.07908791085485567,0.79640523239452,10.100090978299889,73.6711380353353,178.34149620665954,0.5157470703125,0.47772216796875,0.3638916015625,-0.61102294921875,9.786135432026457,73.56685262950576,-92.33691377898528,0.9856351064795558,,,,3,0,3,3
1788940475.3122234,1441886249.0,-9.50390625,0.5703125,2.5703125,-0.015625,0.01171875,-0.072265625,20.375,-7.75,-30.9375,20.375,-7.75,-30.9375,0.06438131673327294,-0.5961812358803121,0.07914192885052493,0.7963413433558074,10.102118161510491,73.68220089359538,178.33305615872345,0.5157470703125,0.47772216796875,0.3638916015625,-0.61102294921875,9.786135432026457,73.56685262950576,-92.33691377898528,0.9819519994666899,,,,3,0,3,3
1788940475.3122234,1441890632.0,-9.42578125,0.5703125,2.609375,-0.01171875,0.0078125,-0.0859375,20.375,-7.75,-30.9375,20.375,-7.75,-30.9375,0.06450274544130406,-0.596245923436254,0.07921063820142202,0.7962762519452067,10.097568078833156,73.69311236655624,178.31302078138793,0.51556396484375,0.47760009765625,0.36419677734375,-0.61114501953125,9.64098659944027,73.59702458697855,-92.489891155646,0.32549174364354094,,,,3,0,3,3
1788940475.3255272,1441898521.0,-9.4609375,0.53125,2.6875,-0.005859375,0.001953125,-0.083984375,19.3125,-6.75,-33.75,19.3125,-6.75,-33.75,0.06453318694474648,-0.5964461798822092,0.07912743256179716,0.7961320692591475,10.06997796936527,73.72191089391201,178.29019793513555,0.51531982421875,0.4774169921875,0.3643798828125,-0.611328125,9.48235099059605,73.58929861968791,-92.63603151365373,1.0284656741447624,,,,3,0,3,3
1788940475.321592,1441903404.0,-9.4609375,0.5703125,2.6484375,-0.015625,0.0,-0.087890625,19.3125,-6.75,-33.75,19.3125,-6.75,-33.75,0.06456180555171992,-0.5965610181694883,0.07908551952409781,0.796047866315895,10.053313570304079,73.73857967273894,178.27487327355144,0.51531982421875,0.4774169921875,0.3643798828125,-0.611328125,9.48235099059605,73.58929861968791,-92.63603151365373,1.0291123822870476,,,,3,0,3,3
1788940475.3255272,1441906457.0,-9.421875,0.4140625,2.609375,-0.015625,0.0,-0.087890625,22.9375,-6.125,-37.3125,22.9375,-6.125,-37.3125,0.06465664312850238,-0.5966095160876838,0.07883994074024502,0.7960281826399415,9.951172434019798,73.74614599611033,178.185247246403,0.51531982421875,0.4774169921875,0.3643798828125,-0.611328125,9.48235099059605,73.58929861968791,-92.63603151365373,1.0243728559826684,,,,3,0,3,3
1788940475.3255272,1441909763.0,-9.3828125,0.1875,2.6484375,-0.0234375,-0.005859375,-0.0859375,22.9375,-6.125,-37.3125,22.9375,-6.125,-37.3125,0.06479006102608964,-0.5966360289463895,0.07856540841164386,0.7960246061249805,9.829289346194253,73.75093793945656,178.0750459616424,0.51507568359375,0.47723388671875,0.36468505859375,-0.61151123046875,9.29962717909875,73.60702281566059,-92.81960099505179,0.8972170103758533,,,,3,0,3,3
1788940475.3396955,1441913669.0,-9.34375,0.1875,2.80078125,-0.021484375,-0.013671875,-0.080078125,22.9375,-6.125,-37.3125,22.9375,-6.125,-37.3125,0.06494028159830761,-0.5966100231925001,0.0782589858349428,0.7960620397860101,9.691053789704426,73.74829056695222,177.94962415443075,0.51507568359375,0.47723388671875,0.36468505859375,-0.61151123046875,9.29962717909875,73.60702281566059,-92.81960099505179,0.8866693786858094,,,,3,0,3,3
1788940475.3416486,1441922305.0,-9.38671875,0.37890625,2.76171875,0.005859375,-0.0078125,-0.0703125,23.1875,-8.625,-38.25,23.1875,-8.625,-38.25,0.06540155802555954,-0.5964943969730602,0.07844861143017857,0.7960922596987434,9.63748659529466,73.73784481015237,177.84234417071244,0.514892578125,0.47698974609375,0.3648681640625,-0.6116943359375,9.136121477797833,73.59304025434298,-92.96493024335965,1.263388826477868,,,,3,0,2,3
1788940475.3416486,1441925511.0,-9.38671875,0.1484375,2.80078125,0.0078125,-0.001953125,-0.072265625,23.25,-7.0625,-37.375,23.25,-7.0625,-37.375,0.06557164529576466,-0.5964818863664137,0.07825499460871503,0.7961066978670391,9.532059608871723,73.7375583038693,177.73884912733166,0.514892578125,0.47698974609375,0.3648681640625,-0.6116943359375,9.136121477797833,73.59304025434298,-92.96493024335965,1.2550809010394453,,,,3,0,2,3
1788940475.3540244,1441929894.0,-9.34375,0.03125,2.91796875,-0.0078125,-0.009765625,-0.06640625,23.25,-7.0625,-37.375,23.25,-7.0625,-37.375,0.06577275212229582,-0.5964274938285521,0.07798915104818532,0.7961569455844965,9.394107973689161,73.73138837044955,177.60613343128472,0.51470947265625,0.4769287109375,0.364990234375,-0.61187744140625,9.033750528819661,73.61171852512079,-93.09306904146898,0.8410424015982011,,,,3,0,2,3
1788940475.3606973,1441933677.0,-9.3125,-0.0078125,2.953125,-0.00390625,0.00390625,-0.05078125,23.25,-7.25,-35.3125,23.25,-7.25,-35.3125,0.06594210531644212,-0.5963850862924484,0.07781183668369501,0.7961920532549255,9.293411027617513,73.72676260234677,177.5060233242396,0.51470947265625,0.4769287109375,0.364990234375,-0.61187744140625,9.033750528819661,73.61171852512079,-93.09306904146898,0.8291354715112498,,,,3,0,2,3
1788940475.3606973,1441937683.0,-9.34765625,0.0703125,2.91796875,0.021484375,0.0078125,-0.03125,23.25,-7.25,-35.3125,23.25,-7.25,-35.3125,0.06612205345369766,-0.596338402699394,0.07769187647083885,0.7962238101460177,9.208912726706114,73.72179019216904,177.41651533167592,0.5145263671875,0.476806640625,0.3651123046875,-0.61199951171875,8.923939347779902,73.60338998453048,-93.19121674668867,1.2491468730403426,,,,3,0,2,3
1788940475.3587441,1441942713.0,-9.34765625,0.1875,2.91796875,0.021484375,0.0078125,-0.03125,23.25,-7.25,-35.3125,23.25,-7.25,-35.3125,0.06632934194671779,-0.5962544051290113,0.07757417060647442,0.7962809496753529,9.117550504732174,73.71177154285857,177.31763337014084,0.5145263671875,0.476806640625,0.3651123046875,-0.61199951171875,8.923939347779902,73.60338998453048,-93.19121674668867,1.2391840829410132,,,,3,0,2,3
1788940475.3606973,1441945619.0,-9.3125,0.0703125,2.83984375,0.025390625,0.015625,-0.025390625,19.9375,-7.875,-31.6875,19.9375,-7.875,-31.6875,0.06650388730376167,-0.5962360182562241,0.07762548627521744,0.796275158087949,9.091459079217131,73.71130522059117,177.2729488061404,0.5145263671875,0.476806640625,0.3651123046875,-0.61199951171875,8.923939347779902,73.60338998453048,-93.19121674668867,1.23111119390521,,,,3,0,3,3
1788940475.3606973,1441949525.0,-9.31640625,-0.0078125,2.83984375,0.0234375,0.01953125,-0.025390625,19.9375,-7.875,-31.6875,19.9375,-7.875,-31.6875,0.0667483645936446,-0.5962266683085511,0.07765066542817137,0.7962592479716144,9.040022967086648,73.71282805865398,177.19934468996203,0.514404296875,0.47686767578125,0.36517333984375,-0.61212158203125,8.88675067696442,73.63686980248052,-93.27137781418057,0.0,,,,3,0,3,3
1788940475.3745968,1441953508.0,-9.31640625,0.109375,2.91796875,0.03515625,0.03125,-0.0078125,20.9375,-6.9375,-31.4375,20.9375,-6.9375,-31.4375,0.06691798916486413,-0.596191784831986,0.07764421894548751,0.7962717586912946,8.99574906781867,73.70973223646803,177.14159633204667,0.514404296875,0.47686767578125,0.36517333984375,-0.61212158203125,8.88675067696442,73.63686980248052,-93.27137781418057,0.0,,,,3,0,3,3
1788940475.3768103,1441956608.0,-9.31640625,0.30078125,2.91796875,0.03515625,0.03125,-0.0078125,20.9375,-6.9375,-31.4375,20.9375,-6.9375,-31.4375,0.06700812144657282,-0.5961424177904562,0.07771113843907641,0.7962946115186598,8.994523413945274,73.70393076001403,177.12735985118152,0.514404296875,0.47686767578125,0.36517333984375,-0.61212158203125,8.88675067696442,73.63686980248052,-93.27137781418057,0.0,,,,3,0,3,3
1788940475.383451,1441961191.0,-9.31640625,0.4140625,2.91796875,0.05078125,0.0390625,-0.001953125,20.9375,-6.9375,-31.4375,20.9375,-6.9375,-31.4375,0.06709608086834155,-0.5960807392371349,0.07791032665818262,0.7963139137567767,9.03689243184165,73.69682302641296,177.1459915999894,0.51422119140625,0.47705078125,0.36517333984375,-0.61212158203125,8.900484033733374,73.65527216230271,-93.27553357822902,0.0,,,,3,0,3,3
1788940475.383451,1441964774.0,-9.34375,0.453125,2.83984375,0.0390625,0.048828125,-0.00390625,19.5625,-4.5,-31.375,19.5625,-4.5,-31.375,0.06712001335580027,-0.5961116093806107,0.07781261324287418,0.7962983424502968,8.99982363884607,73.70115308005454,177.11505937740705,0.51422119140625,0.47705078125,0.36517333984375,-0.61212158203125,8.900484033733374,73.65527216230271,-93.27553357822902,0.0,,,,3,0,3,3
1788940475.3928747,1441969057.0,-9.421875,0.37890625,2.76171875,0.021484375,0.052734375,-0.00390625,19.5625,-4.5,-31.375,19.5625,-4.5,-31.375,0.06714245610862582,-0.5961924241921184,0.07764398155496027,0.7962524072503138,8.941089055381235,73.71234065785515,177.06852220775764,0.5140380859375,0.477294921875,0.36517333984375,-0.612060546875,8.93952080525114,73.6770495990147,-93.25054281699857,0.6294281098421758,,,,3,0,3,3
1788940475.3909216,1441973086.0,-9.421875,0.37890625,2.7265625,0.021484375,0.052734375,-0.00390625,19.5625,-4.5,-31.375,19.5625,-4.5,-31.375,0.06716218040901628,-0.5962784809814181,0.07748246504742144,0.7962020360758784,8.885411764474092,73.72426386148872,177.02469084761645,0.5140380859375,0.477294921875,0.36517333984375,-0.612060546875,8.93952080525114,73.6770495990147,-93.25054281699857,0.6316378066862608,,,,3,0,3,3
1788940475.3928747,1441976693.0,-9.421875,0.37890625,2.76171875,0.01953125,0.05078125,0.005859375,20.875,-6.5,-31.75,20.875,-6.5,-31.75,0.06726906198826839,-0.5962602666630452,0.07755756426103821,0.7961993418259197,8.883595536750434,73.72312908639208,177.00788187423814,0.5140380859375,0.477294921875,0.36517333984375,-0.612060546875,8.93952080525114,73.6770495990147,-93.25054281699857,0.6217611125563508,,,,3,0,3,3
1788940475.3928747,1441980899.0,-9.42578125,0.37890625,2.80078125,0.01953125,0.048828125,0.015625,20.875,-6.5,-31.75,20.875,-6.5,-31.75,0.06733036260067495,-0.5962205745262824,0.07762895272611947,0.7962169267745174,8.891130745466153,73.71840453239368,177.0044271201939,0.51397705078125,0.47747802734375,0.365234375,-0.6119384765625,8.982561679165872,73.70270205929022,-93.21235485916571,0.5285015032150887,,,,3,0,3,3
1788940475.4095278,1441984582.0,-9.4609375,0.453125,2.6875,0.01953125,0.05859375,0.01953125,20.875,-6.5,-31.75,20.875,-6.5,-31.75,0.0672882818569782,-0.596357811868017,0.07782565428157875,0.7960984957179427,8.96942054819042,73.73828582019674,177.0702884309606,0.51397705078125,0.47747802734375,0.365234375,-0.6119384765625,8.982561679165872,73.70270205929022,-93.21235485916571,0.5300516731314573,,,,3,0,3,3
1788940475.4095278,1441988288.0,-9.42578125,0.33984375,2.6484375,0.009765625,0.060546875,0.025390625,20.875,-6.5,-31.75,20.875,-6.5,-31.75,0.06733770336657076,-0.5965373498154254,0.07784595112006787,0.7959578078483286,8.968589168920776,73.76458543785355,177.06411103892327,0.513916015625,0.47772216796875,0.36529541015625,-0.61175537109375,9.051148758758544,73.73172011711304,-93.14479097446068,0.6230970809960412,,,,3,0,3,3
1788940475.4095278,1441992441.0,-9.421875,0.30078125,2.6484375,0.009765625,0.060546875,0.025390625,20.875,-6.5,-31.75,20.875,-6.5,-31.75,0.06741738539697195,-0.5967239670448437,0.07782354007342543,0.7958133574594866,8.946447467152444,73.79208308491104,177.03766510475646,0.513916015625,0.47772216796875,0.36529541015625,-0.61175537109375,9.051148758758544,73.73172011711304,-93.14479097446068,0.6201345461629533,,,,3,0,3,3
1788940475.402757,1441996524.0,-9.46484375,0.30078125,2.6484375,0.0078125,0.05078125,0.025390625,20.4375,-8.0625,-32.6875,20.4375,-8.0625,-32.6875,0.0674442878756783,-0.5968432612905482,0.07804147670660275,0.7957002685675415,9.014765234268062,73.8102519467321,177.08610507147986,0.513916015625,0.47772216796875,0.36529541015625,-0.61175537109375,9.051148758758544,73.73172011711304,-93.14479097446068,0.6174551158000745,,,,3,0,3,3
1788940475.4254131,1442000330.0,-9.42578125,0.33984375,2.609375,0.009765625,0.056640625,0.03125,20.4375,-8.0625,-32.6875,20.4375,-8.0625,-32.6875,0.06744421611475787,-0.5969666639335514,0.07825638070866871,0.7955865878350968,9.088936061954438,73.82868116297192,177.14287143753222,0.51385498046875,0.47796630859375,0.3653564453125,-0.611572265625,9.119990746507412,73.76074893487633,-93.07700721450759,0.6972908029928886,,,,3,0,3,3
1788940475.4262235,1442003913.0,-9.4609375,0.33984375,2.609375,0.009765625,0.05078125,0.02734375,24.25,-7.125,-37.25,24.25,-7.125,-37.25,0.06745130607833172,-0.5971131906973214,0.07817965973822355,0.7954835633794122,9.065692921301784,73.8494463188154,177.1256664366914,0.51385498046875,0.47796630859375,0.3653564453125,-0.611572265625,9.119990746507412,73.76074893487633,-93.07700721450759,0.7001466781619131,,,,3,0,2,3
1788940475.4262235,1442008066.0,-9.421875,0.30078125,2.609375,0.009765625,0.05078125,0.02734375,24.25,-7.125,-37.25,24.25,-7.125,-37.25,0.06747745983605503,-0.5972676796466866,0.07807489840676855,0.7953756480445636,9.02863479398835,73.87146563456105,177.09540290926506,0.51385498046875,0.47796630859375,0.3653564453125,-0.611572265625,9.119990746507412,73.76074893487633,-93.07700721450759,0.7030605649584707,,,,3,0,2,3
1788940475.4262235,1442011972.0,-9.42578125,0.22265625,2.609375,0.015625,0.044921875,0.037109375,24.25,-7.125,-37.25,24.25,-7.125,-37.25,0.06751221943519613,-0.5973882746635216,0.07799044843508418,0.7952904120347292,8.995225346303398,73.8888048605846,177.06633868323735,0.51385498046875,0.47821044921875,0.3653564453125,-0.61138916015625,9.213105135146783,73.78607004740265,-92.98929407186864,0.5994332338224845,,,,3,0,2,3
1788940475.4262235,1442015755.0,-9.3828125,0.22265625,2.6484375,0.015625,0.044921875,0.044921875,24.3125,-7.875,-39.0,24.3125,-7.875,-39.0,0.06757324465264376,-0.5974865600367913,0.07793200361172753,0.7952171212917749,8.963326444853443,73.9033406104295,177.0344423021481,0.51385498046875,0.47821044921875,0.3653564453125,-0.61138916015625,9.213105135146783,73.78607004740265,-92.98929407186864,0.5993220233222136,,,,3,0,2,3
1788940475.4428132,1442019461.0,-9.42578125,0.37890625,2.6484375,0.02734375,0.04296875,0.048828125,24.3125,-7.875,-39.0,24.3125,-7.875,-39.0,0.06760200216849324,-0.5976356730078427,0.07798403208034928,0.795097517535909,8.977295875248984,73.92520058571314,177.042087542363,0.51385498046875,0.478515625,0.36529541015625,-0.61114501953125,9.34429917460123,73.80183362410757,-92.85294565747525,1.0096476048657907,,,,3,0,2,3
1788940475.449986,1442023821.0,-9.38671875,0.4140625,2.609375,0.02734375,0.04296875,0.05078125,23.75,-6.8125,-38.3125,23.75,-6.8125,-38.3125,0.06752439468911128,-0.5977552207669481,0.07789881958489808,0.7950225946946449,8.971239113396377,73.9411251308196,177.0496619020109,0.51385498046875,0.478515625,0.36529541015625,-0.61114501953125,9.34429917460123,73.80183362410757,-92.85294565747525,1.0159146409372422,,,,3,0,2,3
1788940475.451995,1442026997.0,-9.38671875,0.4140625,2.609375,0.02734375,0.04296875,0.05078125,23.75,-6.8125,-38.3125,23.75,-6.8125,-38.3125,0.06746753853048494,-0.5978411003026506,0.07783608372602996,0.7949689893975413,8.966657353059068,73.95254870847428,177.0550876516138,0.51385498046875,0.478515625,0.36529541015625,-0.61114501953125,9.34429917460123,73.80183362410757,-92.85294565747525,1.0207226876641733,,,,3,0,2,3
1788940475.455801,1442031104.0,-9.38671875,0.4140625,2.6484375,0.029296875,0.037109375,0.04296875,23.75,-6.8125,-38.3125,23.75,-6.8125,-38.3125,0.06741156309322467,-0.5979097292758767,0.0777382834724759,0.7949316927141156,8.949752855482693,73.96138404102398,177.05096452251453,0.513916015625,0.47882080078125,0.36517333984375,-0.6109619140625,9.490791534957493,73.82583803677358,-92.72662557939714,0.704082872761222,,,,3,0,2,3
1788940475.4612281,1442034886.0,-9.38671875,0.4921875,2.6484375,0.041015625,0.03515625,0.05078125,24.375,-6.625,-34.375,24.375,-6.625,-34.375,0.06720327569410216,-0.5979734792302958,0.0779226155505277,0.7948833271990062,9.064334940537048,73.96883120752359,177.16762674602953,0.513916015625,0.47882080078125,0.36517333984375,-0.6109619140625,9.490791534957493,73.82583803677358,-92.72662557939714,0.7116796300527078,,,,3,0,2,3
1788940475.4653113,1442039569.0,-9.38671875,0.453125,2.6484375,0.046875,0.03515625,0.04296875,24.375,-6.625,-34.375,24.375,-6.625,-34.375,0.06704018172343625,-0.5980878428029169,0.0779104000213247,0.7948122519780123,9.10376024173639,73.98330624986404,177.22168684345274,0.51385498046875,0.4791259765625,0.36505126953125,-0.61083984375,9.604810699418236,73.8435154931678,-92.63160042675207,0.8018045200043865,,,,3,0,2,3
1788940475.4693491,1442043352.0,-9.42578125,0.4921875,2.6875,0.04296875,0.03515625,0.041015625,19.3125,-6.875,-31.6875,19.3125,-6.875,-31.6875,0.06699863803020453,-0.5981110290229821,0.07821260176595267,0.7947686256944014,9.215360895845707,73.98718810139563,177.31190031624234,0.51385498046875,0.4791259765625,0.36505126953125,-0.61083984375,9.604810699418236,73.8435154931678,-92.63160042675207,0.7963464781915441,,,,3,0,3,3
1788940475.4713168,1442047329.0,-9.421875,0.5703125,2.76171875,0.04296875,0.03515625,0.041015625,19.3125,-6.875,-31.6875,19.3125,-6.875,-31.6875,0.06693139396550825,-0.5980917415968613,0.07850592700248538,0.7947598861045692,9.32919900232532,73.98461991713071,177.40710095150845,0.51385498046875,0.4791259765625,0.36505126953125,-0.61083984375,9.604810699418236,73.8435154931678,-92.63160042675207,0.7928360293272698,,,,3,0,3,3
1788940475.4762712,1442051235.0,-9.42578125,0.53125,2.6875,0.041015625,0.033203125,0.044921875,19.3125,-6.875,-31.6875,19.3125,-6.875,-31.6875,0.06686422501033604,-0.598109389967358,0.07881626881019015,0.7947215416845587,9.44975904106883,73.98734881511702,177.50769483754615,0.51385498046875,0.47943115234375,0.36492919921875,-0.6107177734375,9.730970007119975,73.87037204753281,-92.53569428000083,0.0,,,,3,0,3,3
1788940475.481508,1442054418.0,-9.42578125,0.4921875,2.6875,0.03515625,0.033203125,0.04296875,20.25,-7.0,-31.9375,20.25,-7.0,-31.9375,0.06682513625666447,-0.5981250755684757,0.07906274303700002,0.7946885413820617,9.542054998422007,73.98989018562119,177.5829659968654,0.51385498046875,0.47943115234375,0.36492919921875,-0.6107177734375,9.730970007119975,73.87037204753281,-92.53569428000083,0.0,,,,3,0,3,3
1788940475.4854615,1442058800.0,-9.42578125,0.453125,2.6875,0.025390625,0.029296875,0.048828125,20.25,-7.0,-31.9375,20.25,-7.0,-31.9375,0.06678514011628596,-0.5981383794355195,0.07939215241330466,0.7946490484742816,9.662174847501465,73.99229500074173,177.6793100574564,0.51385498046875,0.47967529296875,0.36480712890625,-0.610595703125,9.840527058651316,73.88185140023715,-92.43924633732378,0.0,,,,3,0,3,3
1788940475.48553,1442062930.0,-9.421875,0.5703125,2.5703125,0.025390625,0.029296875,0.048828125,20.25,-7.0,-31.9375,20.25,-7.0,-31.9375,0.06668367554732843,-0.598221180122042,0.07966970074654091,0.7945674583393451,9.782531092359031,74.00370173856808,177.7853473944338,0.51385498046875,0.47967529296875,0.36480712890625,-0.610595703125,9.840527058651316,73.88185140023715,-92.43924633732378,0.0,,,,3,0,3,3
1788940475.4915364,1442066836.0,-9.421875,0.4921875,2.609375,0.025390625,0.029296875,0.046875,20.6875,-5.375,-30.625,20.6875,-5.375,-30.625,0.06660080560024395,-0.5982951677320761,0.07958039017156208,0.7945276499040089,9.775694936660027,74.01302745972787,177.79281476788557,0.51385498046875,0.47967529296875,0.36480712890625,-0.610595703125,9.840527058651316,73.88185140023715,-92.43924633732378,0.0,,,,3,0,3,3
1788940475.492555,1442070743.0,-9.421875,0.4921875,2.6484375,0.0234375,0.021484375,0.048828125,20.6875,-5.375,-30.625,20.6875,-5.375,-30.625,0.06651535355680578,-0.5983260820374607,0.07948631124311396,0.7945209459919088,9.766501874193999,74.01614537595944,177.79843802782693,0.513916015625,0.47991943359375,0.36468505859375,-0.61041259765625,9.971205265607152,73.89040921704041,-92.31184323782821,0.4149026497773256,,,,3,0,3,3
1788940475.4989543,1442074525.0,-9.50390625,0.64453125,2.609375,0.029296875,0.0234375,0.0390625,20.0,-6.875,-31.25,20.0,-6.875,-31.25,0.0664259777260587,-0.5983747545632622,0.07974487547415562,0.794465856673592,9.876618555889506,74.02271279127044,177.8947319879933,0.513916015625,0.47991943359375,0.36468505859375,-0.61041259765625,9.971205265607152,73.89040921704041,-92.31184323782821,0.4192369403219155,,,,3,0,3,3
1788940475.4966974,1442077932.0,-9.5,0.5703125,2.53125,0.029296875,0.021484375,0.03125,20.0,-6.875,-31.25,20.0,-6.875,-31.25,0.06637866763253022,-0.5984527427809431,0.07994048279141867,0.7943914062679501,9.956351497119336,74.03379673202785,177.96242752625196,0.513916015625,0.4801025390625,0.36456298828125,-0.61029052734375,10.064098136589203,73.88645736754385,-92.2147859468742,0.9955067652289878,,,,3,0,3,3
1788940475.4989543,1442082085.0,-9.5390625,0.60546875,2.53125,0.029296875,0.021484375,0.03125,20.0,-6.875,-31.25,20.0,-6.875,-31.25,0.06631236040845816,-0.5985448495339981,0.08018098730059994,0.7943033068223265,10.056415879812795,74.0467516099048,178.04835132503922,0.513916015625,0.4801025390625,0.36456298828125,-0.61029052734375,10.064098136589203,73.88645736754385,-92.2147859468742,0.998369055725332,,,,3,0,3,3
1788940475.5124655,1442086268.0,-9.5390625,0.68359375,2.5703125,0.021484375,0.013671875,0.02734375,19.8125,-5.625,-32.1875,19.8125,-5.625,-32.1875,0.06613010553169632,-0.5986344603099282,0.08017758720624205,0.7942513119797745,10.103746063786359,74.05726719880941,178.11111021936824,0.513916015625,0.4801025390625,0.36456298828125,-0.61029052734375,10.064098136589203,73.88645736754385,-92.2147859468742,1.0088726057262738,,,,3,0,3,3
1788940475.5153928,1442090174.0,-9.5,0.72265625,2.53125,0.017578125,0.009765625,0.0234375,19.8125,-5.625,-32.1875,19.8125,-5.625,-32.1875,0.06595926717999484,-0.5987183582031975,0.08020164175205169,0.794199848453663,10.157295700124967,74.06716298421307,178.176880931733,0.51397705078125,0.48028564453125,0.36444091796875,-0.6102294921875,10.159925879277646,73.90378389914693,-92.14734098493894,0.21408706611437422,,,,3,0,3,3
1788940475.5213904,1442094057.0,-9.54296875,0.76171875,2.49609375,0.0078125,0.00390625,0.015625,20.5,-5.0625,-31.6875,20.5,-5.0625,-31.6875,0.06580985976509522,-0.5988000188524233,0.0801532699928044,0.7941555597548232,10.181241545775935,74.07683740144589,178.21723923081308,0.51397705078125,0.48028564453125,0.36444091796875,-0.6102294921875,10.159925879277646,73.90378389914693,-92.14734098493894,0.25655677860541093,,,,3,0,3,3
1788940475.5223901,1442097910.0,-9.54296875,0.796875,2.49609375,0.0078125,0.00390625,0.015625,20.5,-5.0625,-31.6875,20.5,-5.0625,-31.6875,0.06564921180113531,-0.5988775956498804,0.08012359258411542,0.7941133523181202,10.214142135518262,74.08582272821175,178.26592830411963,0.51397705078125,0.48028564453125,0.36444091796875,-0.6102294921875,10.159925879277646,73.90378389914693,-92.14734098493894,0.2953203897020456,,,,3,0,3,3
1788940475.5259724,1442101816.0,-9.5390625,0.76171875,2.53125,0.00390625,0.0,0.0078125,20.5,-5.0625,-31.6875,20.5,-5.0625,-31.6875,0.06549523243497327,-0.5989419415203764,0.08004805277555832,0.7940851556747124,10.229557370903699,74.09289745090057,178.30032759930646,0.51397705078125,0.4803466796875,0.36444091796875,-0.61016845703125,10.1860108743108,73.90706072963675,-92.1174114877854,0.5575226772480009,,,,3,0,3,3
1788940475.5190063,1442105799.0,-9.5390625,0.72265625,2.53125,-0.013671875,-0.01171875,-0.00390625,23.9375,-6.125,-37.1875,23.9375,-6.125,-37.1875,0.06534616807733849,-0.5989998113454631,0.07992768529138246,0.7940659100160828,10.228493163349896,74.09901434461545,178.3215159591842,0.51397705078125,0.4803466796875,0.36444091796875,-0.61016845703125,10.1860108743108,73.90706072963675,-92.1174114877854,0.5775927155031694,,,,3,0,2,3
1788940475.5259724,1442109305.0,-9.54296875,0.72265625,2.5703125,-0.005859375,-0.01171875,-0.01171875,23.9375,-6.125,-37.1875,23.9375,-6.125,-37.1875,0.06522280638376128,-0.5990346833296446,0.0798145895354193,0.7940611216983686,10.222610192482474,74.10218746719877,178.33512959524037,0.5140380859375,0.48028564453125,0.36444091796875,-0.61016845703125,10.1808912492829,73.90086178521899,-92.1165036394287,0.5435296590863216,,,,3,0,2,3
1788940475.5259724,1442113864.0,-9.5,0.68359375,2.5703125,-0.001953125,-0.015625,-0.01953125,23.25,-8.125,-37.8125,23.25,-8.125,-37.8125,0.06517062350114787,-0.59904808478489,0.07997126983069708,0.7940395317298079,10.288686749743883,74.10375803455678,178.39263334667004,0.5140380859375,0.48028564453125,0.36444091796875,-0.61016845703125,10.1808912492829,73.90086178521899,-92.1165036394287,0.545857452720034,,,,3,0,2,3
1788940475.541899,1442117941.0,-9.42578125,0.60546875,2.6484375,-0.001953125,-0.015625,-0.01953125,23.25,-8.125,-37.8125,23.25,-8.125,-37.8125,0.06513158008527029,-0.5990074780766663,0.08013230123330897,0.7940571344575164,10.350888078332263,74.09776243300364,178.44471292759857,0.5140380859375,0.48028564453125,0.36444091796875,-0.61016845703125,10.1808912492829,73.90086178521899,-92.1165036394287,0.544224565709568,,,,3,0,2,3
1788940475.5453832,1442121547.0,-9.50390625,0.5703125,2.6875,-0.013671875,-0.017578125,-0.02734375,23.25,-8.125,-37.8125,23.25,-8.125,-37.8125,0.06510959132312702,-0.5989563294779413,0.08025103800642008,0.79408552901746,10.394211515694753,74.09038711147933,178.4799704640506,0.51397705078125,0.48016357421875,0.36444091796875,-0.6102294921875,10.12589266878415,73.87302444238512,-92.14665264445979,1.3004414312427595,,,,3,0,2,3
1788940475.5503824,1442124930.0,-9.4609375,0.60546875,2.6484375,-0.0078125,-0.0234375,-0.029296875,23.75,-7.75,-38.4375,23.75,-7.75,-38.4375,0.06501684037561063,-0.5989161623186297,0.08031834964895962,0.794116618445153,10.438299791928959,74.08355654925069,178.52605177222804,0.51397705078125,0.48016357421875,0.36444091796875,-0.6102294921875,10.12589266878415,73.87302444238512,-92.14665264445979,1.3033564237964939,,,,3,0,2,3
1788940475.5547395,1442129213.0,-9.421875,0.5703125,2.6875,0.005859375,-0.0234375,-0.044921875,23.75,-7.75,-38.4375,23.75,-7.75,-38.4375,0.06498557428387777,-0.5987856071693772,0.0803388577169387,0.7942155499123222,10.447840706818866,74.06450670283074,178.53619965293163,0.51397705078125,0.48004150390625,0.364501953125,-0.6103515625,10.061918408516245,73.87941129510229,-92.22524224529175,0.839927368733955,,,,3,0,2,3
1788940475.5569532,1442133443.0,-9.38671875,0.5703125,2.6875,0.005859375,-0.0234375,-0.044921875,23.75,-7.75,-38.4375,23.75,-7.75,-38.4375,0.06496266876454249,-0.5986525192428845,0.08035393952486349,0.7943162199489386,10.453370825755988,74.04519603634466,178.54209123321874,0.51397705078125,0.48004150390625,0.364501953125,-0.6103515625,10.061918408516245,73.87941129510229,-92.22524224529175,0.8370870313978359,,,,3,0,2,3
1788940475.557059,1442136372.0,-9.34765625,0.5703125,2.7265625,-0.00390625,-0.0234375,-0.0546875,24.25,-7.25,-35.1875,24.25,-7.25,-35.1875,0.06498263273102327,-0.5985550209165122,0.08036003098349007,0.794387443127918,10.44664950437582,74.031522456461,178.53302645387086,0.51397705078125,0.48004150390625,0.364501953125,-0.6103515625,10.061918408516245,73.87941129510229,-92.22524224529175,0.83256777660722,,,,3,0,2,3
1788940475.5640252,1442140479.0,-9.34765625,0.60546875,2.7265625,-0.0078125,-0.015625,-0.052734375,24.25,-7.25,-35.1875,24.25,-7.25,-35.1875,0.06498360857377024,-0.5984416149615394,0.0803884125473064,0.7944699284599007,10.451468132254005,74.0153677720403,178.5351933711171,0.51385498046875,0.4798583984375,0.36456298828125,-0.61053466796875,9.948216289638639,73.86413767180082,-92.33481256267164,1.0738025166580185,,,,3,0,2,3
1788940475.5640252,1442145038.0,-9.34765625,0.60546875,2.76171875,-0.009765625,-0.013671875,-0.052734375,21.875,-7.0,-31.6875,21.875,-7.0,-31.6875,0.06501752557519615,-0.5983351023235245,0.08047078086773045,0.7945390362481343,10.466415168498832,74.00073114001384,178.54035909486177,0.51385498046875,0.4798583984375,0.36456298828125,-0.61053466796875,9.948216289638639,73.86413767180082,-92.33481256267164,1.0693400156512545,,,,3,0,3,3
1788940475.575931,1442148644.0,-9.3828125,0.53125,2.76171875,-0.0234375,-0.009765625,-0.0546875,21.875,-7.0,-31.6875,21.875,-7.0,-31.6875,0.06505977242256121,-0.5982489536589503,0.0805055855783556,0.7945969205509055,10.464222412197477,73.98902972656128,178.531655376645,0.51373291015625,0.479736328125,0.36468505859375,-0.61065673828125,9.848569835286993,73.86506238670538,-92.43338674577348,1.1026351737064561,,,,3,0,3,3
1788940475.5769885,1442152674.0,-9.34765625,0.4140625,2.80078125,-0.0234375,-0.009765625,-0.0546875,21.875,-7.0,-31.6875,21.875,-7.0,-31.6875,0.06517694922081084,-0.5981324166159379,0.08044477605392625,0.7946812036842698,10.410506591893594,73.97378230635793,178.47307781974047,0.51373291015625,0.479736328125,0.36468505859375,-0.61065673828125,9.848569835286993,73.86506238670538,-92.43338674577348,1.0935718344791996,,,,3,0,3,3
1788940475.5770514,1442156680.0,-9.38671875,0.453125,2.80078125,-0.02734375,-0.00390625,-0.056640625,20.25,-6.0,-31.4375,20.25,-6.0,-31.4375,0.06524864117280449,-0.5980570084454933,0.08021417555176975,0.7947553809285468,10.313144072648948,73.96347419748517,178.3886375743339,0.51373291015625,0.479736328125,0.36468505859375,-0.61065673828125,9.848569835286993,73.86506238670538,-92.43338674577348,1.0884067493916798,,,,3,0,3,3
1788940475.5859387,1442160786.0,-9.3828125,0.4921875,2.6875,-0.015625,0.001953125,-0.048828125,20.25,-6.0,-31.4375,20.25,-6.0,-31.4375,0.06528738307021584,-0.598027896237811,0.07995306855182892,0.7948004150491916,10.21557735925306,73.95926657496261,178.3093036508456,0.513671875,0.47955322265625,0.36492919921875,-0.61077880859375,9.719874599847168,73.88564065683212,-92.56870470817015,0.16543642690019444,,,,3,0,3,3
1788940475.5909376,1442164369.0,-9.38671875,0.453125,2.6484375,-0.01953125,0.0,-0.0546875,20.0625,-5.875,-30.8125,20.0625,-5.875,-30.8125,0.06535401808347198,-0.5980509083255195,0.07968888685928248,0.7948041549227676,10.112025454890034,73.96282885711557,178.22205656129282,0.513671875,0.47955322265625,0.36492919921875,-0.61077880859375,9.719874599847168,73.88564065683212,-92.56870470817015,0.14660793764293922,,,,3,0,3,3
1788940475.6005895,1442167775.0,-9.4609375,0.4140625,2.7265625,-0.021484375,0.00390625,-0.0625,20.0625,-5.875,-30.8125,20.0625,-5.875,-30.8125,0.06544730673656747,-0.5980378532278275,0.07944657775075505,0.794830558944027,10.007867224408237,73.96158035119244,178.13014002567883,0.5135498046875,0.4793701171875,0.3651123046875,-0.61083984375,9.600342802055758,73.87198402600467,-92.65575043951773,1.1148986576637547,,,,3,0,3,3
1788940475.6025426,1442172329.0,-9.5,0.4140625,2.7265625,-0.021484375,0.00390625,-0.0625,20.0625,-5.875,-30.8125,20.0625,-5.875,-30.8125,0.06557282371500095,-0.5980293070567285,0.07911631019375673,0.794859586438143,9.866645104634207,73.96111659118569,178.0057558606785,0.5135498046875,0.4793701171875,0.3651123046875,-0.61083984375,9.600342802055758,73.87198402600467,-92.65575043951773,1.1098419032408071,,,,3,0,3,3
1788940475.6025426,1442176111.0,-9.46484375,0.33984375,2.83984375,-0.01953125,0.001953125,-0.0546875,20.125,-5.75,-30.0625,20.125,-5.75,-30.0625,0.06568085024493557,-0.5979757805140818,0.07890142261786609,0.7949122953751274,9.76666780560304,73.95423532776873,177.9144692229081,0.5135498046875,0.4793701171875,0.3651123046875,-0.61083984375,9.600342802055758,73.87198402600467,-92.65575043951773,1.105283216483796,,,,3,0,3,3
1788940475.6025426,1442179818.0,-9.50390625,0.22265625,2.76171875,-0.033203125,0.01171875,-0.048828125,20.125,-5.75,-30.0625,20.125,-5.75,-30.0625,0.06579543304790506,-0.5979879410348942,0.07864177114186927,0.7949194016996669,9.65237510535725,73.95667028851132,177.81214670372015,0.513427734375,0.479248046875,0.3653564453125,-0.6109619140625,9.476323850521023,73.89870209293949,-92.79244723697778,0.3313711011745735,,,,3,0,3,3
1788940475.6055982,1442183800.0,-9.46484375,0.26171875,2.7265625,-0.025390625,0.009765625,-0.04296875,21.25,-7.5,-31.8125,21.25,-7.5,-31.8125,0.06598476278492468,-0.5980004005673598,0.07867731643015163,0.7948908175849336,9.617806177650861,73.96083615433031,177.75913859027858,0.513427734375,0.479248046875,0.3653564453125,-0.6109619140625,9.476323850521023,73.89870209293949,-92.79244723697778,0.293159466474683,,,,3,0,3,3
1788940475.6078117,1442187554.0,-9.46484375,0.26171875,2.6875,-0.025390625,0.009765625,-0.04296875,21.25,-7.5,-31.8125,21.25,-7.5,-31.8125,0.06615535190044186,-0.5980419945790661,0.07871077845111732,0.7948420317839514,9.588070512546885,73.96893475641683,177.7127343850579,0.513427734375,0.479248046875,0.3653564453125,-0.6109619140625,9.476323850521023,73.89870209293949,-92.79244723697778,0.2570017681775412,,,,3,0,3,3
1788940475.617364,1442191660.0,-9.42578125,0.30078125,2.6875,-0.021484375,0.015625,-0.03515625,21.25,-7.5,-31.8125,21.25,-7.5,-31.8125,0.06630449754902301,-0.5980805815757227,0.07879649653683896,0.7947920757533614,9.58091500667723,73.97649506985258,177.68636752047718,0.51336669921875,0.4791259765625,0.36553955078125,-0.6109619140625,9.394422524571716,73.89751230456469,-92.84929296812373,0.8059204532299434,,,,3,0,3,3
1788940475.6173956,1442195443.0,-9.46484375,0.30078125,2.6484375,-0.02734375,0.017578125,-0.03125,20.0625,-6.6875,-33.0,20.0625,-6.6875,-33.0,0.06642894912928299,-0.5981624177347273,0.07858405183175006,0.7947411298813152,9.481842195558432,73.98906309926026,177.59471796611467,0.51336669921875,0.4791259765625,0.36553955078125,-0.6109619140625,9.394422524571716,73.89751230456469,-92.84929296812373,0.8011619380434273,,,,3,0,3,3
1788940475.6258717,1442199725.0,-9.42578125,0.26171875,2.6484375,-0.01171875,0.013671875,-0.029296875,20.0625,-6.6875,-33.0,20.0625,-6.6875,-33.0,0.06659343383265424,-0.59823033834116,0.0783670792090308,0.7946976643698173,9.370770274689951,74.00005719236694,177.48812497468342,0.5133056640625,0.47906494140625,0.36572265625,-0.6109619140625,9.32916999669122,73.91172609823275,-92.90669378381651,0.6795546656423413,,,,3,0,3,3
1788940475.6287448,1442203508.0,-9.421875,0.22265625,2.7265625,-0.0078125,0.017578125,-0.025390625,24.375,-5.5625,-36.375,24.375,-5.5625,-36.375,0.06665659029851376,-0.5982551814772947,0.07814839435687886,0.7946952027442893,9.282904660807636,74.00365065524022,177.41310658458403,0.5133056640625,0.47906494140625,0.36572265625,-0.6109619140625,9.32916999669122,73.91172609823275,-92.90669378381651,0.679233632081731,,,,3,0,3,3
1788940475.6307125,1442207485.0,-9.421875,0.33984375,2.6875,-0.0078125,0.017578125,-0.025390625,24.375,-5.5625,-36.375,24.375,-5.5625,-36.375,0.06670066492186437,-0.598287435364591,0.07791369327142693,0.7946902682080911,9.19460922917633,74.00800466742774,177.34055649907802,0.5133056640625,0.47906494140625,0.36572265625,-0.6109619140625,9.32916999669122,73.91172609823275,-92.90669378381651,0.681941168315129,,,,3,0,3,3
1788940475.6262853,1442211191.0,-9.42578125,0.37890625,2.609375,0.00390625,0.0234375,-0.033203125,24.375,-5.5625,-36.375,24.375,-5.5625,-36.375,0.06675382546594592,-0.5983514035252159,0.07770198423168077,0.7946583708308408,9.112552704703674,74.01705733331656,177.27167452119562,0.51318359375,0.47906494140625,0.36590576171875,-0.6109619140625,9.268577856527953,73.93213427666922,-92.96547738055864,0.5964864072506516,,,,3,0,3,3
1788940475.6307125,1442214774.0,-9.421875,0.453125,2.6484375,0.0,0.017578125,-0.02734375,23.0625,-7.3125,-38.875,23.0625,-7.3125,-38.875,0.0667272553405406,-0.5984050716069748,0.07750902275179197,0.7946390344438359,9.056225582267187,74.02377413882215,177.23350394157094,0.51318359375,0.47906494140625,0.36590576171875,-0.6109619140625,9.268577856527953,73.93213427666922,-92.96547738055864,0.6063508039791184,,,,3,0,2,3
1788940475.6461601,1442219057.0,-9.42578125,0.4921875,2.6875,-0.01171875,0.021484375,-0.03125,23.0625,-7.3125,-38.875,23.0625,-7.3125,-38.875,0.0666263607976586,-0.5983875791620016,0.07734581169097368,0.7946765748185635,9.026378209295894,74.01955683459929,177.22532046394363,0.5130615234375,0.47906494140625,0.36602783203125,-0.6109619140625,9.220137026635832,73.93957319519781,-93.00529499389977,0.9273507154507606,,,,3,0,2,3
1788940475.6462245,1442223086.0,-9.4609375,0.453125,2.76171875,-0.01171875,0.021484375,-0.03125,23.0625,-7.3125,-38.875,23.0625,-7.3125,-38.875,0.06662785367007489,-0.5983381571392248,0.07719306512425088,0.7947285130931685,8.973735513893063,74.01195843532868,177.18500948302864,0.5130615234375,0.47906494140625,0.36602783203125,-0.6109619140625,9.220137026635832,73.93957319519781,-93.00529499389977,0.930411486532558,,,,3,0,2,3
1788940475.65218,1442226893.0,-9.46484375,0.53125,2.6484375,-0.01171875,0.0234375,-0.033203125,23.375,-8.5,-37.125,23.375,-8.5,-37.125,0.06663783429147412,-0.59838822745771,0.0773246786208836,0.7946771812233814,9.0164910241304,74.01970551859459,177.21623001884848,0.5130615234375,0.47906494140625,0.36602783203125,-0.6109619140625,9.220137026635832,73.93957319519781,-93.00529499389977,0.9271796719843117,,,,3,0,2,3
1788940475.656175,1442230799.0,-9.4609375,0.53125,2.6875,-0.01171875,0.0234375,-0.029296875,23.375,-8.5,-37.125,23.375,-8.5,-37.125,0.0666425404088289,-0.5984205767163421,0.07746818890716031,0.7946384491564591,9.06408564357012,74.024891319392,177.25170779206982,0.512939453125,0.47906494140625,0.36614990234375,-0.6109619140625,9.171621393683159,73.94700312012098,-93.04519883152787,1.152778039279496,,,,3,0,2,3
1788940475.6591766,1442234682.0,-9.4609375,0.53125,2.6875,-0.015625,0.025390625,-0.033203125,23.3125,-4.6875,-34.375,23.3125,-4.6875,-34.375,0.06663183759267832,-0.5984628765639513,0.0772243656644546,0.794631223236003,8.986489807495248,74.0299772109289,177.19512248454055,0.512939453125,0.47906494140625,0.36614990234375,-0.6109619140625,9.171621393683159,73.94700312012098,-93.04519883152787,1.1581171232223528,,,,3,0,2,3
1788940475.6591766,1442238288.0,-9.50390625,0.5703125,2.5703125,-0.01953125,0.025390625,-0.04296875,23.3125,-4.6875,-34.375,23.3125,-4.6875,-34.375,0.06661360803306697,-0.5985474305268395,0.07698718018025955,0.7945920807070932,8.914042184225826,74.04104008788876,177.14384420794582,0.51287841796875,0.47900390625,0.36639404296875,-0.6109619140625,9.093659610551228,73.97420013597916,-93.12222862208961,0.7679876839324522,,,,3,0,2,3
1788940475.6591766,1442242641.0,-9.4609375,0.4921875,2.5703125,-0.01953125,0.025390625,-0.04296875,23.3125,-4.6875,-34.375,23.3125,-4.6875,-34.375,0.06662023353333292,-0.5986433003498869,0.07669145401224262,0.7945478993186299,8.816034043630484,74.05377217108945,177.06979906848977,0.51287841796875,0.47900390625,0.36639404296875,-0.6109619140625,9.093659610551228,73.97420013597916,-93.12222862208961,0.7784103872281383,,,,3,0,2,3
1788940475.6591766,1442246724.0,-9.421875,0.4921875,2.6484375,-0.029296875,0.0234375,-0.041015625,19.4375,-7.125,-33.0625,19.4375,-7.125,-33.0625,0.06661866407324168,-0.5986934200502695,0.07679610902277079,0.7945001573471026,8.852687239708375,74.06131976746268,177.09808212401282,0.51287841796875,0.47900390625,0.36639404296875,-0.6109619140625,9.093659610551228,73.97420013597916,-93.12222862208961,0.7759113426081102,,,,3,0,3,3
1788940475.6758864,1442250630.0,-9.38671875,0.4921875,2.609375,-0.029296875,0.01953125,-0.0390625,19.4375,-7.125,-33.0625,19.4375,-7.125,-33.0625,0.06661423278780652,-0.5987533201598468,0.07689083924775242,0.79444622500672,8.887018327007299,74.07019734699408,177.1251139886441,0.51275634765625,0.47894287109375,0.36663818359375,-0.6109619140625,9.003540675934877,73.99212840544934,-93.2003081601621,0.8112223668776608,,,,3,0,3,3
1788940475.6799862,1442254213.0,-9.34765625,0.453125,2.53125,-0.025390625,0.017578125,-0.044921875,20.8125,-6.5625,-32.125,20.8125,-6.5625,-32.125,0.06662307106800675,-0.5988644771268433,0.07690831949766386,0.7943600032913951,8.893540033197297,74.08628689290383,177.1297027800203,0.51275634765625,0.47894287109375,0.36663818359375,-0.6109619140625,9.003540675934877,73.99212840544934,-93.2003081601621,0.8120424060908674,,,,3,0,3,3
1788940475.6819837,1442258266.0,-9.34765625,0.4140625,2.609375,-0.025390625,0.017578125,-0.044921875,20.8125,-6.5625,-32.125,20.8125,-6.5625,-32.125,0.06666802322862048,-0.5989540006830167,0.07698336981804138,0.7942814617728753,8.909767911858925,74.09988853298474,177.13625644688398,0.51275634765625,0.47894287109375,0.36663818359375,-0.6109619140625,9.003540675934877,73.99212840544934,-93.2003081601621,0.8087438687614132,,,,3,0,3,3
1788940475.6868963,1442262172.0,-9.34375,0.37890625,2.609375,-0.013671875,0.015625,-0.05078125,20.8125,-6.5625,-32.125,20.8125,-6.5625,-32.125,0.06681550889813091,-0.5990560478913386,0.07701363610213896,0.7941891708590726,8.885641362806515,74.11626935128464,177.0977460028852,0.51263427734375,0.47882080078125,0.3668212890625,-0.61102294921875,8.899852404018674,73.99368884804176,-93.28901512084754,1.0397136130804177,,,,3,0,3,3
1788940475.6908956,1442265955.0,-9.3828125,0.37890625,2.53125,-0.015625,0.013671875,-0.048828125,20.3125,-7.875,-31.625,20.3125,-7.875,-31.625,0.06689166807316073,-0.5991246724827759,0.07710144889654315,0.7941224704935947,8.89779247764869,74.12727571716843,177.09656931393494,0.51263427734375,0.47882080078125,0.3668212890625,-0.61102294921875,8.899852404018674,73.99368884804176,-93.28901512084754,1.0354937975067013,,,,3,0,3,3
1788940475.6955729,1442269661.0,-9.421875,0.33984375,2.5703125,-0.013671875,0.01953125,-0.041015625,20.3125,-7.875,-31.625,20.3125,-7.875,-31.625,0.06697082509214031,-0.5991944236830091,0.07720104632312533,0.7940534929463373,8.913186197026882,74.13852220168359,177.09742295277823,0.51251220703125,0.478759765625,0.3670654296875,-0.61102294921875,8.809398001440654,74.0115903541527,-93.36750428224035,1.0585137399309112,,,,3,0,3,3
1788940475.6969497,1442273244.0,-9.3828125,0.22265625,2.6484375,-0.013671875,0.017578125,-0.04296875,21.5,-6.0625,-31.625,21.5,-6.0625,-31.625,0.06710305665368795,-0.5992320550736076,0.07698289882581902,0.794035110841055,8.807691791726308,74.14457600023108,176.99908211928266,0.51251220703125,0.478759765625,0.3670654296875,-0.61102294921875,8.809398001440654,74.0115903541527,-93.36750428224035,1.0548581092790326,,,,3,0,3,3
1788940475.6969497,1442277797.0,-9.38671875,0.30078125,2.6484375,-0.013671875,0.017578125,-0.04296875,21.5,-6.0625,-31.625,21.5,-6.0625,-31.625,0.06725831576273754,-0.599272415919828,0.0767003555111321,0.7940188574226928,8.674765710959205,74.15097626783101,176.8767167583524,0.51251220703125,0.478759765625,0.3670654296875,-0.61102294921875,8.809398001440654,74.0115903541527,-93.36750428224035,1.0519781679697595,,,,3,0,3,3
1788940475.6969497,1442281704.0,-9.46484375,0.37890625,2.5703125,-0.0078125,0.015625,-0.037109375,21.5,-6.0625,-31.625,21.5,-6.0625,-31.625,0.06731963167953918,-0.5994122480276046,0.0765681073639909,0.7939208707671823,8.618206016617382,74.17116899154043,176.82628096788437,0.51239013671875,0.47869873046875,0.36724853515625,-0.611083984375,8.722047445734065,74.02863016616753,-93.45708031634626,0.8831985358591685,,,,3,0,3,3
1788940475.711332,1442285286.0,-9.4609375,0.33984375,2.609375,-0.005859375,0.01171875,-0.037109375,19.9375,-6.4375,-31.5625,19.9375,-6.4375,-31.5625,0.06745457764337696,-0.5995193516577251,0.07654697608556046,0.7938305785210161,8.57960781499054,74.18790100783701,176.77856256220937,0.51239013671875,0.47869873046875,0.36724853515625,-0.611083984375,8.722047445734065,74.02863016616753,-93.45708031634626,0.8783686628663369,,,,3,0,3,3
1788940475.7153292,1442289569.0,-9.4609375,0.4140625,2.7265625,-0.0078125,0.009765625,-0.037109375,19.9375,-6.4375,-31.5625,19.9375,-6.4375,-31.5625,0.06750704818528913,-0.599429901762845,0.07660166930753622,0.7938883898742908,8.582728594261699,74.17585872409337,176.7726969403594,0.5123291015625,0.4786376953125,0.36737060546875,-0.611083984375,8.668390209418005,74.02980774386691,-93.49622327502226,1.0814329643089098,,,,3,0,3,3
1788940475.7193623,1442293352.0,-9.46484375,0.37890625,2.6875,-0.005859375,0.013671875,-0.0390625,21.0625,-6.25,-32.8125,21.0625,-6.25,-32.8125,0.06757910479956342,-0.5994046875178128,0.07639979172788759,0.7939207498233676,8.496107054110277,74.17218477181906,176.69669952872397,0.5123291015625,0.4786376953125,0.36737060546875,-0.611083984375,8.668390209418005,74.02980774386691,-93.49622327502226,1.080586858390132,,,,3,0,3,3
1788940475.72133,1442297429.0,-9.42578125,0.30078125,2.7265625,-0.005859375,0.013671875,-0.0390625,21.0625,-6.25,-32.8125,21.0625,-6.25,-32.8125,0.06769716203081724,-0.5993716255110945,0.07619904253077171,0.7939549450079364,8.398153471803052,74.16784801569938,176.6054845106921,0.5123291015625,0.4786376953125,0.36737060546875,-0.611083984375,8.668390209418005,74.02980774386691,-93.49622327502226,1.0780630239405475,,,,3,0,3,3
1788940475.7258372,1442301235.0,-9.38671875,0.1875,2.6875,-0.015625,0.015625,-0.029296875,21.0625,-6.25,-32.8125,21.0625,-6.25,-32.8125,0.06781321000703334,-0.5993841343026866,0.07598604783006874,0.793956011772647,8.297582912353777,74.16993555680413,176.51291708109912,0.51220703125,0.47857666015625,0.3675537109375,-0.61114501953125,8.580832216139946,74.04683233761763,-93.58604452163152,0.9085051623443683,,,,3,0,3,3
1788940475.7268443,1442305594.0,-9.38671875,0.26171875,2.7265625,-0.013671875,0.01171875,-0.021484375,23.3125,-6.5625,-36.9375,23.3125,-6.5625,-36.9375,0.06787950596261627,-0.5993661448512186,0.07575050667618762,0.793986434276279,8.20133741730052,74.1669954882713,176.43054848134042,0.51220703125,0.47857666015625,0.3675537109375,-0.61114501953125,8.580832216139946,74.04683233761763,-93.58604452163152,0.9103976544720856,,,,3,0,3,3
1788940475.7365773,1442308900.0,-9.38671875,0.22265625,2.6875,-0.005859375,0.01171875,-0.015625,23.3125,-6.5625,-36.9375,23.3125,-6.5625,-36.9375,0.06794065510393328,-0.5993700684947646,0.07557769886276576,0.7939947101909678,8.127925593439324,74.16740166140303,176.3663254259761,0.51214599609375,0.47857666015625,0.36767578125,-0.61114501953125,8.543584566885047,74.06355281119058,-93.62591980890862,0.6864178531739874,,,,3,0,3,3
1788940475.7346241,1442313130.0,-9.421875,0.1875,2.7265625,-0.005859375,0.01171875,-0.015625,23.3125,-6.5625,-36.9375,23.3125,-6.5625,-36.9375,0.06802494962868659,-0.5993653032703167,0.07536401804247957,0.7940114005782214,8.034781584376779,74.16658485259893,176.28381052172026,0.51214599609375,0.47857666015625,0.36767578125,-0.61114501953125,8.543584566885047,74.06355281119058,-93.62591980890862,0.688736602792021,,,,3,0,3,3
1788940475.7410371,1442317036.0,-9.3828125,0.22265625,2.6484375,-0.001953125,0.015625,-0.017578125,23.125,-6.3125,-38.375,23.125,-6.3125,-38.375,0.06808128598212164,-0.5993957279304619,0.07515225995802352,0.7940036761003906,7.949962113537183,74.17051498687776,176.21182906174528,0.51214599609375,0.47857666015625,0.36767578125,-0.61114501953125,8.543584566885047,74.06355281119058,-93.62591980890862,0.6946349952232391,,,,3,0,2,3
1788940475.7450151,1442320943.0,-9.34375,0.1484375,2.7265625,-0.001953125,0.01953125,-0.005859375,23.125,-6.3125,-38.375,23.125,-6.3125,-38.375,0.06813174272966761,-0.5994036699239949,0.07496780647407472,0.7940107896664443,7.875382207007899,74.17126893657851,176.14827960187046,0.5120849609375,0.47857666015625,0.36773681640625,-0.61114501953125,8.518910575366464,74.06723174298614,-93.64637680094542,0.849176617739228,,,,3,0,2,3
1788940475.7519507,1442324525.0,-9.34375,0.109375,2.7265625,0.00390625,0.021484375,0.00390625,23.1875,-6.6875,-37.6875,23.1875,-6.6875,-37.6875,0.06819324763765165,-0.5994085866330765,0.07482678261454603,0.7940151005180714,7.812557391132777,74.17189151384335,176.0920031261279,0.5120849609375,0.47857666015625,0.36773681640625,-0.61114501953125,8.518910575366464,74.06723174298614,-93.64637680094542,0.851526120390604,,,,3,0,2,3
1788940475.7559807,1442329108.0,-9.34765625,0.1875,2.6875,0.0,0.01953125,0.005859375,23.1875,-6.6875,-37.6875,23.1875,-6.6875,-37.6875,0.06825172583960883,-0.5994194302793944,0.07463250418966794,0.7940201747070539,7.732687704465731,74.17305426016343,176.02331781618614,0.51202392578125,0.4786376953125,0.3677978515625,-0.611083984375,8.52001144136804,74.0742856021208,-93.63718429717204,1.084064849346295,,,,3,0,2,3
1788940475.7569914,1442332585.0,-9.42578125,0.1875,2.6484375,0.0,0.01953125,0.005859375,23.1875,-6.6875,-37.6875,23.1875,-6.6875,-37.6875,0.06829873251556368,-0.5994555954614771,0.07447772764544622,0.7940033628968232,7.669367997950684,74.1779184043357,175.9689299545781,0.51202392578125,0.4786376953125,0.3677978515625,-0.611083984375,8.52001144136804,74.0742856021208,-93.63718429717204,1.0880456759651822,,,,3,0,2,3
1788940475.7599914,1442336368.0,-9.42578125,0.26171875,2.609375,0.01171875,0.0234375,0.013671875,24.875,-6.9375,-33.3125,24.875,-6.9375,-33.3125,0.06837986586134912,-0.599550102978121,0.07462216527890034,0.793911456280105,7.698921604289436,74.1929951622087,175.9801484009812,0.51202392578125,0.4786376953125,0.3677978515625,-0.611083984375,8.52001144136804,74.0742856021208,-93.63718429717204,1.0810370165874055,,,,3,0,2,3
1788940475.7632031,1442340174.0,-9.42578125,0.26171875,2.6484375,0.017578125,0.0234375,0.015625,24.875,-6.9375,-33.3125,24.875,-6.9375,-33.3125,0.06850246772569611,-0.5995973643327468,0.07479946638471657,0.7938485072287249,7.728349859934807,74.20186193654841,175.98504036242036,0.51202392578125,0.478759765625,0.3677978515625,-0.61102294921875,8.5623761722008,74.09324577830883,-93.60808114824191,0.7693556068919365,,,,3,0,2,3
1788940475.7632031,1442343757.0,-9.42578125,0.26171875,2.609375,0.015625,0.021484375,0.017578125,20.875,-5.5625,-31.6875,20.875,-5.5625,-31.6875,0.06853084490976943,-0.5996526378636546,0.07467136909568793,0.7938163665713182,7.678904295999849,74.20941879838512,175.94390308402373,0.51202392578125,0.478759765625,0.3677978515625,-0.61102294921875,8.5623761722008,74.09324577830883,-93.60808114824191,0.7751487201927404,,,,3,0,3,3
1788940475.7632031,1442347910.0,-9.46484375,0.22265625,2.5703125,0.015625,0.021484375,0.017578125,20.875,-5.5625,-31.6875,20.875,-5.5625,-31.6875,0.0685721903538036,-0.59974334044766,0.07453913030066087,0.793756699721511,7.625266518848902,74.22215621394211,175.89792120744625,0.51202392578125,0.478759765625,0.3677978515625,-0.61102294921875,8.5623761722008,74.09324577830883,-93.60808114824191,0.7816409248261775,,,,3,0,3,3
1788940475.7760642,1442351816.0,-9.50390625,0.33984375,2.5703125,0.017578125,0.021484375,0.02734375,20.875,-5.5625,-31.6875,20.875,-5.5625,-31.6875,0.0685427335810684,-0.5998526489975383,0.07444881981784854,0.7936851179098675,7.603907739116392,74.23709877927034,175.8866235496235,0.51202392578125,0.47894287109375,0.36773681640625,-0.6109619140625,8.634011859381177,74.11474971083985,-93.56002647516408,0.0,,,,3,0,3,3
1788940475.7812057,1442355799.0,-9.50390625,0.4140625,2.609375,0.0234375,0.021484375,0.02734375,20.4375,-6.625,-32.5625,20.4375,-6.625,-32.5625,0.06848886574450123,-0.5999193446892531,0.07469415939685581,0.7936163038198282,7.701346565256731,74.2474136058468,175.9684640789111,0.51202392578125,0.47894287109375,0.36773681640625,-0.6109619140625,8.634011859381177,74.11474971083985,-93.56002647516408,0.0,,,,3,0,3,3
1788940475.78517,1442360282.0,-9.4609375,0.37890625,2.609375,0.03125,0.01953125,0.03515625,20.4375,-6.625,-32.5625,20.4375,-6.625,-32.5625,0.06845365055586858,-0.5999901822731156,0.07499582296079582,0.7935373371429233,7.813258504337469,74.25875426784613,176.05862697895108,0.51202392578125,0.47906494140625,0.36767578125,-0.61083984375,8.698409734853131,74.10840795924989,-93.48099393656415,0.9387923646070339,,,,3,0,3,3
1788940475.7902145,1442364064.0,-9.4609375,0.4140625,2.5703125,0.021484375,0.01953125,0.03515625,20.0625,-5.8125,-30.4375,20.0625,-5.8125,-30.4375,0.06835632306979558,-0.6001039891689337,0.0751310713011778,0.7934468711924243,7.8855878681960485,74.2747990978851,176.12806632130062,0.51202392578125,0.47906494140625,0.36767578125,-0.61083984375,8.698409734853131,74.10840795924989,-93.48099393656415,0.9404430703016888,,,,3,0,3,3
1788940475.7911344,1442368141.0,-9.5,0.453125,2.49609375,0.021484375,0.01953125,0.03515625,20.0625,-5.8125,-30.4375,20.0625,-5.8125,-30.4375,0.0682650661135158,-0.6002304141827983,0.07527330599651257,0.7933456119767848,7.959107534158134,74.2927303245556,176.19764899232842,0.51202392578125,0.47906494140625,0.36767578125,-0.61083984375,8.698409734853131,74.10840795924989,-93.48099393656415,0.9426077142651644,,,,3,0,3,3
1788940475.7958302,1442371647.0,-9.421875,0.33984375,2.5703125,0.0234375,0.01953125,0.037109375,20.0625,-5.8125,-30.4375,20.0625,-5.8125,-30.4375,0.06826191085630154,-0.6003444778407808,0.0752677986514384,0.7932600947599048,7.960086157809608,74.30905125112629,176.19957166884885,0.51202392578125,0.47930908203125,0.3675537109375,-0.6107177734375,8.808761567363838,74.12017966104133,-93.38349664384974,0.9827474439783555,,,,3,0,3,3
1788940475.7964997,1442375130.0,-9.42578125,0.37890625,2.609375,0.01953125,0.015625,0.033203125,20.5,-6.5625,-32.1875,20.5,-6.5625,-32.1875,0.0682329645566291,-0.6003761232326844,0.07549698941486538,0.7932168542014207,8.045679360151055,74.31439175423073,176.268775182821,0.51202392578125,0.47930908203125,0.3675537109375,-0.6107177734375,8.808761567363838,74.12017966104133,-93.38349664384974,0.9765964217816746,,,,3,0,3,3
1788940475.7964997,1442379613.0,-9.5,0.4921875,2.5703125,0.03125,0.009765625,0.041015625,20.5,-6.5625,-32.1875,20.5,-6.5625,-32.1875,0.06812827827517126,-0.6004277705398778,0.07579413068759114,0.7931584203783537,8.174045992418622,74.3221171975703,176.38142649583455,0.5120849609375,0.47943115234375,0.367431640625,-0.61065673828125,8.888641814282122,74.12236244600149,-93.31431979422545,0.8657940165568573,,,,3,0,3,3
1788940475.7945466,1442383643.0,-9.46484375,0.53125,2.609375,0.03125,0.009765625,0.041015625,20.5,-6.5625,-32.1875,20.5,-6.5625,-32.1875,0.0680164951965952,-0.6004341995277609,0.07607644726250946,0.793136118576467,8.298371483317537,74.32315112660685,176.49174401782196,0.5120849609375,0.47943115234375,0.367431640625,-0.61065673828125,8.888641814282122,74.12236244600149,-93.31431979422545,0.8615916349156091,,,,3,0,3,3
1788940475.8125951,1442387049.0,-9.46484375,0.53125,2.6484375,0.03515625,0.01171875,0.03515625,19.625,-6.4375,-31.5625,19.625,-6.4375,-31.5625,0.06793302625527624,-0.6004167109682227,0.0763137864721899,0.7931337107500719,8.399732058075731,74.32080046548434,176.58041845986548,0.5120849609375,0.47943115234375,0.367431640625,-0.61065673828125,8.888641814282122,74.12236244600149,-93.31431979422545,0.8578309281797695,,,,3,0,3,3
1788940475.8175147,1442391455.0,-9.42578125,0.53125,2.6875,0.029296875,0.013671875,0.021484375,19.625,-6.4375,-31.5625,19.625,-6.4375,-31.5625,0.06784891689587101,-0.6003615742235449,0.0765716213272485,0.7931577973387142,8.507328411798627,74.31308727196715,176.67361919490148,0.5120849609375,0.4796142578125,0.3673095703125,-0.610595703125,8.97316971885143,74.13075461448993,-93.246584115369,0.763317005904424,,,,3,0,3,3
1788940475.8205914,1442395038.0,-9.46484375,0.5703125,2.7265625,0.015625,0.01171875,0.017578125,20.75,-7.125,-32.5625,20.75,-7.125,-32.5625,0.06779358085947085,-0.6003263032592043,0.07677513568891667,0.7931695522076833,8.589569970916163,74.30827391599294,176.74360692082786,0.5120849609375,0.4796142578125,0.3673095703125,-0.610595703125,8.97316971885143,74.13075461448993,-93.246584115369,0.75910346486305,,,,3,0,3,3
1788940475.8245976,1442398644.0,-9.421875,0.53125,2.6484375,0.0234375,0.015625,0.0078125,20.75,-7.125,-32.5625,20.75,-7.125,-32.5625,0.06776423484128065,-0.6003220978226519,0.07699297556409432,0.7931541269236219,8.67075787568168,74.30823703170225,176.80929374445628,0.5120849609375,0.479736328125,0.36724853515625,-0.61053466796875,9.028493382925456,74.13662249198082,-93.19773660775456,0.773563382492818,,,,3,0,3,3
1788940475.824199,1442402774.0,-9.421875,0.53125,2.6484375,0.0234375,0.015625,0.0078125,20.75,-7.125,-32.5625,20.75,-7.125,-32.5625,0.06773076025328616,-0.600316448235616,0.07724236279804073,0.7931370143188771,8.763652748436964,74.30805057078747,176.8844303730915,0.5120849609375,0.479736328125,0.36724853515625,-0.61053466796875,9.028493382925456,74.13662249198082,-93.19773660775456,0.7691344166855375,,,,3,0,3,3
1788940475.8297067,1442406680.0,-9.42578125,0.53125,2.6875,0.02734375,0.017578125,-0.001953125,23.3125,-5.0625,-36.5,23.3125,-5.0625,-36.5,0.06771243538878316,-0.6003160363565513,0.07711235875503263,0.7931515408256575,8.724238131083561,74.30727756754027,176.85720254211938,0.5120849609375,0.479736328125,0.36724853515625,-0.61053466796875,9.028493382925456,74.13662249198082,-93.19773660775456,0.7732966058432427,,,,3,0,3,3
1788940475.8297067,1442410786.0,-9.3828125,0.5703125,2.6484375,0.021484375,0.017578125,0.0,23.3125,-5.0625,-36.5,23.3125,-5.0625,-36.5,0.06766342336823043,-0.6003222189567093,0.07697143545040658,0.7931647323788977,8.689084934204217,74.30706918420759,176.83766555179804,0.511962890625,0.4798583984375,0.36724853515625,-0.61053466796875,9.037835897307035,74.14907726878864,-93.20053015820736,0.8481520887144396,,,,3,0,3,3
1788940475.8297067,1442414269.0,-9.34375,0.5703125,2.6484375,0.021484375,0.0234375,-0.001953125,22.875,-8.625,-38.3125,22.875,-8.625,-38.3125,0.06764820013233791,-0.6003249928121556,0.0771692662172094,0.7931447083448505,8.760069961490112,74.30808190010322,176.89364849137536,0.511962890625,0.4798583984375,0.36724853515625,-0.61053466796875,9.037835897307035,74.14907726878864,-93.20053015820736,0.8441629417047045,,,,3,0,2,3
1788940475.8478267,1442418752.0,-9.34375,0.5703125,2.6484375,0.013671875,0.0234375,-0.009765625,22.875,-8.625,-38.3125,22.875,-8.625,-38.3125,0.06763205818402199,-0.600330259148229,0.07739928970218572,0.7931196849217717,8.842273317933742,74.30955043396266,176.95828428530413,0.51190185546875,0.47998046875,0.36724853515625,-0.61053466796875,9.059332144887296,74.17095557430828,-93.2024543842192,0.0,,,,3,0,2,3
1788940475.8478267,1442422129.0,-9.34765625,0.53125,2.6484375,0.013671875,0.0234375,-0.009765625,22.875,-8.625,-38.3125,22.875,-8.625,-38.3125,0.06762883619331607,-0.600332713348001,0.07757391774977081,0.7931010409048247,8.902354913262375,74.3105311161141,177.0042841456194,0.51190185546875,0.47998046875,0.36724853515625,-0.61053466796875,9.059332144887296,74.17095557430828,-93.2024543842192,0.0,,,,3,0,2,3
1788940475.853822,1442426111.0,-9.38671875,0.4921875,2.609375,0.01171875,0.021484375,-0.005859375,23.125,-6.25,-38.0,23.125,-6.25,-38.0,0.0675811483047798,-0.600360477588676,0.07740692614695005,0.7931004054517845,8.858569535238358,74.31335078526944,176.9781936026767,0.51190185546875,0.47998046875,0.36724853515625,-0.61053466796875,9.059332144887296,74.17095557430828,-93.2024543842192,0.0,,,,3,0,2,3
1788940475.8558433,1442429818.0,-9.34765625,0.4140625,2.6484375,0.00390625,0.0234375,-0.0078125,23.125,-6.25,-38.0,23.125,-6.25,-38.0,0.06757320279209224,-0.6003722351013693,0.07723668979540492,0.7931087790040238,8.803165532181914,74.31429749892995,176.9374558786276,0.51177978515625,0.48004150390625,0.3673095703125,-0.61053466796875,9.039358798052339,74.18090274482795,-93.22422796402822,0.5411997081593232,,,,3,0,2,3
1788940475.860091,1442433800.0,-9.421875,0.53125,2.609375,0.00390625,0.0234375,-0.013671875,24.0,-4.25,-34.25,24.0,-4.25,-34.25,0.06755592303922692,-0.6004135996792213,0.07703846879020225,0.7930982164328823,8.741370186644948,74.31927384429687,176.8934530010612,0.51177978515625,0.48004150390625,0.3673095703125,-0.61053466796875,9.039358798052339,74.18090274482795,-93.22422796402822,0.5521674071639174,,,,3,0,2,3
1788940475.860091,1442437754.0,-9.4609375,0.453125,2.6875,0.00390625,0.0234375,-0.013671875,24.0,-4.25,-34.25,24.0,-4.25,-34.25,0.06756137783758108,-0.6004387699741545,0.0768438303735431,0.7930975787821661,8.674581898619623,74.32217829196102,176.84226303134926,0.51177978515625,0.48004150390625,0.3673095703125,-0.61053466796875,9.039358798052339,74.18090274482795,-93.22422796402822,0.5610418990128067,,,,3,0,2,3
1788940475.8630974,1442441660.0,-9.5390625,0.4140625,2.7265625,0.0078125,0.025390625,-0.017578125,24.0,-4.25,-34.25,24.0,-4.25,-34.25,0.06758603931984646,-0.6004643504581322,0.07665365736516032,0.7930945138698755,8.604408230957507,74.32535456526603,176.78574467652996,0.51165771484375,0.4801025390625,0.36737060546875,-0.6104736328125,9.028661320639495,74.17852889721878,-93.21548633008597,1.2586984828886285,,,,3,0,2,3
1788940475.8630974,1442446419.0,-9.54296875,0.37890625,2.6875,0.015625,0.029296875,-0.01953125,20.875,-8.5,-32.375,20.875,-8.5,-32.375,0.06767054119403522,-0.6005124222111335,0.07689450136921058,0.7930275936458984,8.665754889087168,74.33414277309967,176.82046345844148,0.51165771484375,0.4801025390625,0.36737060546875,-0.6104736328125,9.028661320639495,74.17852889721878,-93.21548633008597,1.2510557415106065,,,,3,0,3,3
1788940475.8759427,1442449925.0,-9.54296875,0.4140625,2.6484375,0.005859375,0.03125,-0.013671875,20.875,-8.5,-32.375,20.875,-8.5,-32.375,0.06770567354227597,-0.6005595034738604,0.07706413032006475,0.7929724739077826,8.715529260557984,74.34196175581398,176.8535117855701,0.51153564453125,0.480224609375,0.367431640625,-0.6104736328125,9.025471586705427,74.2041443881692,-93.23785673988212,1.0358445196261146,,,,3,0,3,3
1788940475.8799877,1442453508.0,-9.421875,0.37890625,2.5703125,-0.005859375,0.021484375,-0.01171875,20.625,-6.4375,-31.125,20.625,-6.4375,-31.125,0.067745676405615,-0.6006588518678855,0.07716129229126174,0.7928843559895993,8.740769012686307,74.3570484964658,176.8676878789502,0.51153564453125,0.480224609375,0.367431640625,-0.6104736328125,9.025471586705427,74.2041443881692,-93.23785673988212,1.0338202891497759,,,,3,0,3,3
1788940475.8819554,1442457585.0,-9.421875,0.4140625,2.53125,-0.005859375,0.021484375,-0.01171875,20.625,-6.4375,-31.125,20.625,-6.4375,-31.125,0.06774435498915966,-0.6007791543260637,0.07726445807893048,0.7927832702650401,8.779162720993076,74.37471290509936,176.8979592036272,0.51153564453125,0.480224609375,0.367431640625,-0.6104736328125,9.025471586705427,74.2041443881692,-93.23785673988212,1.0345110728306859,,,,3,0,3,3
1788940475.8856962,1442461391.0,-9.4609375,0.4140625,2.5703125,-0.0078125,0.013671875,-0.0078125,20.625,-6.4375,-31.125,20.625,-6.4375,-31.125,0.06773886972496904,-0.6008626148881706,0.07738795543535505,0.7927084381483959,8.824689888339856,74.38711691914224,176.9339594544604,0.511474609375,0.480224609375,0.3675537109375,-0.6104736328125,8.9881879038941,74.22099585653476,-93.27788922611202,0.8420920454940085,,,,3,0,3,3
1788940475.8919537,1442465950.0,-9.38671875,0.4140625,2.53125,-0.00390625,0.021484375,-0.005859375,21.0,-6.4375,-31.0625,21.0,-6.4375,-31.0625,0.0677298008837406,-0.600987609393327,0.07752910882979745,0.7926006590408565,8.878284879847032,74.40550766401027,176.9769559024078,0.511474609375,0.480224609375,0.3675537109375,-0.6104736328125,8.9881879038941,74.22099585653476,-93.27788922611202,0.8437835578241455,,,,3,0,3,3
1788940475.8925476,1442469057.0,-9.42578125,0.453125,2.49609375,-0.009765625,0.01953125,-0.001953125,21.0,-6.4375,-31.0625,21.0,-6.4375,-31.0625,0.06769606148554673,-0.6010754101457448,0.07761116408804213,0.792528928043872,8.917179001133247,74.41805083038568,177.01205613074742,0.511474609375,0.48028564453125,0.36761474609375,-0.61041259765625,9.001836380574801,74.23750815797193,-93.26740873061607,0.5731644496910494,,,,3,0,3,3
1788940475.8904264,1442473286.0,-9.421875,0.26171875,2.45703125,-0.009765625,0.01953125,-0.001953125,21.0,-6.4375,-31.0625,21.0,-6.4375,-31.0625,0.06776423670057764,-0.6012225469454897,0.07755840345857307,0.7924166526024828,8.885528062598894,74.43974683913939,176.97944702851362,0.511474609375,0.48028564453125,0.36761474609375,-0.61041259765625,9.001836380574801,74.23750815797193,-93.26740873061607,0.5761525327508232,,,,3,0,3,3
1788940475.8963509,1442476893.0,-9.421875,0.1875,2.49609375,-0.01171875,0.01171875,-0.001953125,20.625,-6.4375,-31.4375,20.625,-6.4375,-31.4375,0.06785436773177381,-0.6013138620702139,0.07744702502568998,0.7923505426114095,8.826687795286883,74.45343940532673,176.92254878356556,0.511474609375,0.48028564453125,0.36761474609375,-0.61041259765625,9.001836380574801,74.23750815797193,-93.26740873061607,0.5766228542432029,,,,3,0,3,3
1788940475.8963509,1442480799.0,-9.4609375,0.30078125,2.5703125,-0.001953125,0.005859375,0.00390625,20.625,-6.4375,-31.4375,20.625,-6.4375,-31.4375,0.0679837496579231,-0.6013933550797891,0.07737605560633808,0.7922860520463101,8.771177916173228,74.46601320575729,176.86241498003255,0.511474609375,0.48028564453125,0.36767578125,-0.6103515625,8.998625468594666,74.23831119259894,-93.25638375918861,0.841629292267869,,,,3,0,3,3
1788940475.9123747,1442484582.0,-9.50390625,0.33984375,2.5703125,0.0,0.00390625,0.0078125,20.5,-5.625,-32.0625,20.5,-5.625,-32.0625,0.06798677385599182,-0.601428534755883,0.07719964850004757,0.7922762967762667,8.710940312817465,74.47039787324296,176.81649552189072,0.511474609375,0.48028564453125,0.36767578125,-0.6103515625,8.998625468594666,74.23831119259894,-93.25638375918861,0.8465720473812952,,,,3,0,3,3
1788940475.9154074,1442489464.0,-9.5390625,0.37890625,2.609375,0.00390625,0.0078125,0.00390625,20.5,-5.625,-32.0625,20.5,-5.625,-32.0625,0.06797949110397418,-0.601456696956314,0.0769718036215688,0.792277711363186,8.635563951170447,74.47344213479163,176.76049454564878,0.51153564453125,0.48028564453125,0.36773681640625,-0.61029052734375,9.007634642587542,74.24858601181138,-93.24446516741352,0.5343052954128589,,,,3,0,3,3
1788940475.9164355,1442492518.0,-9.5390625,0.37890625,2.53125,0.00390625,0.0078125,0.00390625,20.5,-5.625,-32.0625,20.5,-5.625,-32.0625,0.06797097527370771,-0.6015164404824357,0.07684525621444284,0.7922453691546691,8.5958762681502,74.48141593206694,176.73202450264475,0.51153564453125,0.48028564453125,0.36773681640625,-0.61029052734375,9.007634642587542,74.24858601181138,-93.24446516741352,0.5440065592196505,,,,3,0,3,3
1788940475.9244502,1442496424.0,-9.5390625,0.4140625,2.49609375,0.0078125,0.001953125,0.0,19.6875,-5.6875,-32.9375,19.6875,-5.6875,-32.9375,0.06794470546991438,-0.6015978033188265,0.07670333816848178,0.7921995947703967,8.555970030164824,74.49223854043254,176.7060991452052,0.51153564453125,0.48028564453125,0.36773681640625,-0.61029052734375,9.007634642587542,74.24858601181138,-93.24446516741352,0.5575506202519398,,,,3,0,3,3
1788940475.9263947,1442500430.0,-9.54296875,0.4921875,2.53125,0.001953125,-0.00390625,-0.00390625,19.6875,-5.6875,-32.9375,19.6875,-5.6875,-32.9375,0.06785122368012197,-0.6016617515662865,0.07655952033218309,0.7921729533339322,8.532304386795413,74.49982727250509,176.70205003582325,0.511474609375,0.48028564453125,0.36767578125,-0.61029052734375,9.00797609338281,74.22594950546716,-93.22574339436865,1.3223114741033033,,,,3,0,3,3
1788940475.9298124,1442504213.0,-9.54296875,0.4921875,2.53125,0.01171875,-0.009765625,0.001953125,23.0,-7.0,-37.0625,23.0,-7.0,-37.0625,0.067752861229418,-0.6017325175556875,0.0766045197605828,0.7921232698662324,8.574750192571514,74.50912668585298,176.74901401189112,0.511474609375,0.48028564453125,0.36767578125,-0.61029052734375,9.00797609338281,74.22594950546716,-93.22574339436865,1.3269640610683504,,,,3,0,3,3
1788940475.929649,1442508596.0,-9.5390625,0.53125,2.5703125,0.0078125,-0.0078125,-0.005859375,23.0,-7.0,-37.0625,23.0,-7.0,-37.0625,0.06758907829131951,-0.6017615005631598,0.07669345808042484,0.7921066382901801,8.648193984722667,74.51187908735925,176.8286496543011,0.511474609375,0.48028564453125,0.36767578125,-0.6103515625,8.998625468594666,74.23831119259894,-93.25638375918861,0.8955085589372976,,,,3,0,3,3
1788940475.9317946,1442512172.0,-9.50390625,0.5703125,2.5703125,0.0078125,-0.0078125,-0.005859375,23.0,-7.0,-37.0625,23.0,-7.0,-37.0625,0.06745621646341735,-0.6017631597110695,0.07678821527882093,0.7921075233005198,8.71500022664182,74.51104194710913,176.89857673757064,0.511474609375,0.48028564453125,0.36767578125,-0.6103515625,8.998625468594666,74.23831119259894,-93.25638375918861,0.9005876115481726,,,,3,0,3,3
1788940475.9360852,1442515955.0,-9.50390625,0.5703125,2.5703125,0.0078125,-0.01171875,-0.0078125,23.5625,-6.1875,-37.625,23.5625,-6.1875,-37.625,0.06734530234970898,-0.6017592248444659,0.07665686231723672,0.7921326726159514,8.69849312855866,74.50874819903107,176.90195426004186,0.511474609375,0.48028564453125,0.36767578125,-0.6103515625,8.998625468594666,74.23831119259894,-93.25638375918861,0.9105238196766949,,,,3,0,2,3
1788940475.9482458,1442520638.0,-9.50390625,0.5703125,2.5703125,-0.001953125,-0.01171875,-0.013671875,23.5625,-6.1875,-37.625,23.5625,-6.1875,-37.625,0.06720282949414995,-0.6017575082838251,0.07647015800516993,0.792164121799698,8.671215072930808,74.50621557357357,176.9017019514856,0.511474609375,0.48028564453125,0.36761474609375,-0.61041259765625,9.001836380574801,74.23750815797193,-93.26740873061607,0.6904979677571164,,,,3,0,2,3
1788940475.9502344,1442524421.0,-9.46484375,0.5703125,2.5703125,-0.005859375,-0.013671875,-0.021484375,23.75,-7.75,-38.4375,23.75,-7.75,-38.4375,0.06713553353228777,-0.6017424953455464,0.07659666740568082,0.7921690097289806,8.731546841771353,74.50381169959395,176.95713216614905,0.511474609375,0.48028564453125,0.36761474609375,-0.61041259765625,9.001836380574801,74.23750815797193,-93.26740873061607,0.6900151710776492,,,,3,0,2,3
1788940475.9532342,1442528374.0,-9.42578125,0.5703125,2.609375,-0.005859375,-0.013671875,-0.021484375,23.75,-7.75,-38.4375,23.75,-7.75,-38.4375,0.06706544487789921,-0.6016895704396956,0.07672535269591167,0.7922026932427787,8.792349866013197,74.49592328990342,177.01300728359615,0.511474609375,0.48028564453125,0.36761474609375,-0.61041259765625,9.001836380574801,74.23750815797193,-93.26740873061607,0.6879014495300529,,,,3,0,2,3
1788940475.9567447,1442532480.0,-9.42578125,0.5703125,2.6484375,-0.00390625,-0.015625,-0.021484375,23.75,-7.75,-38.4375,23.75,-7.75,-38.4375,0.06700301198456693,-0.6016044523125181,0.0768466722464676,0.7922608587500679,8.847757227452162,74.48345350495713,177.06339831912672,0.511474609375,0.48016357421875,0.36767578125,-0.6104736328125,8.946209587195552,74.23160841184115,-93.31653112028715,0.6649297200845418,,,,3,0,2,3
1788940475.9646213,1442536263.0,-9.42578125,0.5703125,2.6484375,-0.00390625,-0.009765625,-0.03515625,25.0625,-6.125,-33.875,25.0625,-6.125,-33.875,0.06692684636918174,-0.6015168867281802,0.07681004159465793,0.7923373332906513,8.852518862513987,74.46988961929078,177.07724240192644,0.511474609375,0.48016357421875,0.36767578125,-0.6104736328125,8.946209587195552,74.23160841184115,-93.31653112028715,0.66808554441449,,,,3,0,2,3
1788940475.9646213,1442539569.0,-9.421875,0.5703125,2.6875,-0.005859375,-0.01171875,-0.033203125,25.0625,-6.125,-33.875,25.0625,-6.125,-33.875,0.06688052115959171,-0.6014270016529325,0.07677257614263408,0.7924131050939329,8.849253680652064,74.45632302313079,177.08067505231585,0.51141357421875,0.4801025390625,0.36773681640625,-0.61053466796875,8.895240890279025,74.23195243915384,-93.36709833324407,0.6895118235394312,,,,3,0,2,3
1788940475.9688158,1442543552.0,-9.42578125,0.53125,2.6875,-0.015625,-0.009765625,-0.041015625,21.25,-6.9375,-31.4375,21.25,-6.9375,-31.4375,0.06688877865785503,-0.6013649755448037,0.07687809666105552,0.792449251202518,8.881554665732276,74.4478919964889,177.10350326269793,0.51141357421875,0.4801025390625,0.36773681640625,-0.61053466796875,8.895240890279025,74.23195243915384,-93.36709833324407,0.6823576877617334,,,,3,0,3,3
1788940475.9707835,1442547429.0,-9.42578125,0.4921875,2.6875,-0.015625,-0.009765625,-0.041015625,21.25,-6.9375,-31.4375,21.25,-6.9375,-31.4375,0.06690927486200801,-0.6013006094104872,0.07698028419355646,0.7924864427266225,8.909486655440768,74.43924782679001,177.12122694410326,0.51141357421875,0.4801025390625,0.36773681640625,-0.61053466796875,8.895240890279025,74.23195243915384,-93.36709833324407,0.6743037140415641,,,,3,0,3,3
1788940475.976701,1442551035.0,-9.421875,0.453125,2.6484375,-0.025390625,-0.01171875,-0.041015625,21.25,-6.9375,-31.4375,21.25,-6.9375,-31.4375,0.06693110359017576,-0.6012549463048804,0.07707231170499,0.7925103000495107,8.934086663647903,74.43326726708466,177.13638166765605,0.5113525390625,0.47991943359375,0.36785888671875,-0.61065673828125,8.78872313935847,74.2263735014765,-93.4667420885167,0.6697682430906728,,,,3,0,3,3
