pc_unix,dev_us,ax,ay,az,gx,gy,gz,mx_raw,my_raw,mz_raw,mx,my,mz,host_qw,host_qx,host_qy,host_qz,host_roll,host_pitch,host_yaw,chip_qw,chip_qx,chip_qy,chip_qz,chip_roll,chip_pitch,chip_yaw,diff_deg,rel_roll,rel_pitch,rel_yaw,cal_acc,cal_gyr,cal_mag,cal_rv
1788939311.6834927,4573218403.0,-8.27734375,2.0625,4.83203125,0.03125,-0.017578125,0.0546875,14.875,-9.4375,-41.9375,14.875,-9.4375,-41.9375,-0.0028546909220092363,-0.4942738189168376,0.11270090789150727,0.8619650503550217,22.07701476863992,58.36973810853679,-167.18391499355087,0.61376953125,0.42919921875,0.26995849609375,-0.60516357421875,22.387880777633555,58.304902236256936,-76.59675608862632,0.5204958648471465,,,,3,0,2,3
1788939311.6874278,4573221985.0,-8.31640625,2.140625,4.83203125,0.041015625,-0.015625,0.046875,13.625,-9.25,-41.4375,13.625,-9.25,-41.4375,-0.003017089032564594,-0.4941657861823407,0.11286449240979479,0.8620050343783603,22.116904677464078,58.34960698446927,-167.14458734419418,0.61376953125,0.42919921875,0.26995849609375,-0.60516357421875,22.387880777633555,58.304902236256936,-76.59675608862632,0.5092364292328473,,,,3,0,2,3
1788939311.6874278,4573225692.0,-8.31640625,2.140625,4.83203125,0.041015625,-0.009765625,0.0390625,13.625,-9.25,-41.4375,13.625,-9.25,-41.4375,-0.0031756068929341907,-0.4940654614453174,0.11302160821503336,0.862041386131881,22.155664790929162,58.33063262384363,-167.10614453015518,0.61383056640625,0.4293212890625,0.2696533203125,-0.6051025390625,22.443824275460774,58.278046287095854,-76.55110645714787,1.0027407591755322,,,,3,0,2,3
1788939311.699369,4573230075.0,-8.3125,2.21484375,4.83203125,0.03515625,0.001953125,0.03125,13.625,-9.25,-41.4375,13.625,-9.25,-41.4375,-0.0033570679944996593,-0.49398452309635604,0.11322926503767691,0.8620598323636088,22.207599718918857,58.312768801199766,-167.05683378450104,0.61383056640625,0.4293212890625,0.2696533203125,-0.6051025390625,22.443824275460774,58.278046287095854,-76.55110645714787,0.9980134794557298,,,,3,0,2,3
1788939311.7036226,4573233051.0,-8.3125,2.21484375,4.79296875,0.03515625,0.001953125,0.03125,15.0625,-8.9375,-36.0625,15.0625,-8.9375,-36.0625,-0.0034459452058385126,-0.49395045532086423,0.11342227854728616,0.8620536293520787,22.250727307524446,58.30335436409208,-167.02272290643666,0.61383056640625,0.4293212890625,0.2696533203125,-0.6051025390625,22.443824275460774,58.278046287095854,-76.55110645714787,1.0006620969032185,,,,3,0,3,3
1788939311.7121294,4573238434.0,-8.31640625,2.17578125,4.83203125,0.03125,0.009765625,0.01953125,15.0625,-8.9375,-36.0625,15.0625,-8.9375,-36.0625,-0.00358474264917121,-0.49387509112964006,0.11372999546335705,0.862055701282541,22.317695894335547,58.285738791862116,-166.9704355672885,0.61383056640625,0.42950439453125,0.26953125,-0.60504150390625,22.492268857190584,58.28014994177326,-76.5197520173281,0.8756179084758164,,,,3,0,3,3
1788939311.7185097,4573241040.0,-8.3515625,2.21484375,4.83203125,0.033203125,0.013671875,0.01171875,15.0625,-8.9375,-36.0625,15.0625,-8.9375,-36.0625,-0.003645586770608013,-0.49385379947492564,0.11388004924693909,0.8620478344180168,22.350724845038616,58.27926378445144,-166.9450954096555,0.61383056640625,0.42950439453125,0.26953125,-0.60504150390625,22.492268857190584,58.28014994177326,-76.5197520173281,0.8794731613390029,,,,3,0,3,3
1788939311.7215197,4573245623.0,-8.35546875,2.140625,4.83203125,0.046875,0.029296875,-0.001953125,15.0625,-8.9375,-36.0625,15.0625,-8.9375,-36.0625,-0.003714904361708113,-0.49383611670596667,0.11414570829108608,0.8620225325367549,22.406752584423067,58.271283682339906,-166.90584589021645,0.61376953125,0.4296875,0.2694091796875,-0.60504150390625,22.532130642686994,58.2843811749066,-76.50408773155918,0.7379506784833251,,,,3,0,3,3
1788939311.7219167,4573249176.0,-8.35546875,2.140625,4.83203125,0.046875,0.029296875,-0.001953125,15.0625,-8.9375,-36.0625,15.0625,-8.9375,-36.0625,-0.0037710196938034583,-0.4938200586891883,0.11434792602042378,0.8620046872619099,22.44953964810192,58.26478602134801,-166.87555746342613,0.61376953125,0.4296875,0.2694091796875,-0.60504150390625,22.532130642686994,58.2843811749066,-76.50408773155918,0.747676453666719,,,,3,0,3,3
1788939311.7238698,4573253559.0,-8.35546875,2.140625,4.83203125,0.041015625,0.033203125,-0.009765625,10.375,-10.5,-35.5,10.375,-10.5,-35.5,-0.003703007871184082,-0.4938571601786877,0.11462929558487366,0.8619463542858473,22.498705118290843,58.26694474403861,-166.85587110912712,0.61376953125,0.4296875,0.2694091796875,-0.60504150390625,22.532130642686994,58.2843811749066,-76.50408773155918,0.7759697175746564,,,,3,0,3,3
1788939311.7238698,4573257465.0,-8.3515625,2.0625,4.83203125,0.041015625,0.029296875,-0.021484375,10.375,-10.5,-35.5,10.375,-10.5,-35.5,-0.003607833040889094,-0.4938847386378812,0.11486733105414315,0.8618992660037708,22.53630219610924,58.26924683580333,-166.846383321794,0.61358642578125,0.42987060546875,0.2694091796875,-0.60504150390625,22.552066954974862,58.29777976141989,-76.4959376758204,1.2233769015184612,,,,3,0,3,3
1788939311.7369547,4573260571.0,-8.3515625,2.0625,4.79296875,0.046875,0.03515625,-0.03125,11.75,-8.0,-34.375,11.75,-8.0,-34.375,-0.003665158565518316,-0.49389497570286783,0.11487791976639822,0.8618917467630712,22.54471778921335,58.26891695257455,-166.8340252054684,0.61358642578125,0.42987060546875,0.2694091796875,-0.60504150390625,22.552066954974862,58.29777976141989,-76.4959376758204,1.2202486893343683,,,,3,0,3,3
1788939311.7369547,4573265154.0,-8.3125,2.1015625,4.71484375,0.0390625,0.03515625,-0.037109375,11.75,-8.0,-34.375,11.75,-8.0,-34.375,-0.003752177747753504,-0.49401838605970994,0.11500627793545523,0.8618035225227043,22.58634337408801,58.28031485451007,-166.79562784536915,0.61334228515625,0.4300537109375,0.2694091796875,-0.60516357421875,22.560099720407504,58.3190490731845,-76.52105990959308,1.1678902215190585,,,,3,0,3,3
1788939311.7369547,4573268907.0,-8.3125,2.0625,4.71484375,0.0390625,0.03515625,-0.037109375,11.75,-8.0,-34.375,11.75,-8.0,-34.375,-0.0038357358462396507,-0.49414008575236346,0.11503567802586431,0.8617294561312702,22.60876943039275,58.29308036039555,-166.76832708269114,0.61334228515625,0.4300537109375,0.2694091796875,-0.60516357421875,22.560099720407504,58.3190490731845,-76.52105990959308,1.163345081583537,,,,3,0,3,3
1788939311.7369547,4573272490.0,-8.31640625,2.0234375,4.71484375,0.03515625,0.029296875,-0.04296875,11.5,-8.3125,-36.125,11.5,-8.3125,-36.125,-0.003869337181237063,-0.4942649882333331,0.11495122584203797,0.8616689418296879,22.604878740275403,58.30925836008765,-166.76186421613428,0.61334228515625,0.4300537109375,0.2694091796875,-0.60516357421875,22.560099720407504,58.3190490731845,-76.52105990959308,1.1558817327144941,,,,3,0,3,3
1788939311.7525234,4573276096.0,-8.3515625,1.984375,4.6796875,0.044921875,0.025390625,-0.048828125,11.5,-8.3125,-36.125,11.5,-8.3125,-36.125,-0.0037878754815441184,-0.49442737029367173,0.11487400914738845,0.8615864376406039,22.593552861915356,58.33299543457587,-166.77299712562936,0.61309814453125,0.43023681640625,0.26947021484375,-0.60528564453125,22.563436134410654,58.34851164307952,-76.55186633908032,0.8849372534630734,,,,3,0,3,3
1788939311.7505703,4573280779.0,-8.31640625,1.984375,4.71484375,0.041015625,0.02734375,-0.044921875,11.5,-8.3125,-36.125,11.5,-8.3125,-36.125,-0.0037351275988113954,-0.49456717525094607,0.11469634379514686,0.8615300962277209,22.564408524840143,58.354679729859846,-166.7910821755957,0.61309814453125,0.43023681640625,0.26947021484375,-0.60528564453125,22.563436134410654,58.34851164307952,-76.55186633908032,0.8761412847275019,,,,3,0,3,3
1788939311.7525234,4573288062.0,-8.35546875,1.91015625,4.6796875,0.041015625,0.021484375,-0.05078125,11.5,-8.4375,-34.125,11.5,-8.4375,-34.125,-0.0033579203828035037,-0.4948585002951122,0.1147825210809283,0.8613528672447092,22.56366485275738,58.39975735564002,-166.8299339992535,0.61285400390625,0.43035888671875,0.26953125,-0.60546875,22.551489042268827,58.375667066411125,-76.60115985958481,0.0,,,,3,0,3,3
1788939311.7684171,4573292621.0,-8.3515625,1.91015625,4.75390625,0.041015625,0.015625,-0.056640625,11.5,-8.625,-38.25,11.5,-8.625,-38.25,-0.0031917685431786034,-0.49491540800917655,0.1145790677007329,0.8613478906768787,22.5123804232296,58.41425412916875,-166.87772984941583,0.61285400390625,0.43035888671875,0.26953125,-0.60546875,22.551489042268827,58.375667066411125,-76.60115985958481,0.0,,,,3,0,3,3
1788939311.7720494,4573296128.0,-8.3125,1.87109375,4.71484375,0.041015625,0.005859375,-0.048828125,11.5,-8.625,-38.25,11.5,-8.625,-38.25,-0.0030610231236519905,-0.4949564631942412,0.11442839286894044,0.8613448047008327,22.47352795095793,58.42503668955452,-166.9146481005951,0.612548828125,0.43048095703125,0.26959228515625,-0.60565185546875,22.534206069092928,58.39924806650547,-76.64865444958282,0.3540121181636075,,,,3,0,3,3
1788939311.7775033,4573299510.0,-8.31640625,1.87109375,4.640625,0.04296875,0.009765625,-0.04296875,14.375,-6.8125,-40.4375,14.375,-6.8125,-40.4375,-0.0029813993851954186,-0.49501234205398187,0.11429181572945041,0.861331105515877,22.443490102560236,58.43617080945015,-166.93961576047332,0.612548828125,0.43048095703125,0.26959228515625,-0.60565185546875,22.534206069092928,58.39924806650547,-76.64865444958282,0.34889416944781454,,,,3,0,3,3
1788939311.7775033,4573304064.0,-8.2734375,1.83203125,4.6796875,0.04296875,0.009765625,-0.04296875,14.375,-6.8125,-40.4375,14.375,-6.8125,-40.4375,-0.00286924156394763,-0.49507194649684516,0.11410771196681023,0.8613216387124917,22.401389503963593,58.449308128607775,-166.9753335288033,0.612548828125,0.43048095703125,0.26959228515625,-0.60565185546875,22.534206069092928,58.39924806650547,-76.64865444958282,0.34462654780552565,,,,3,0,3,3
1788939311.7775033,4573307570.0,-8.27734375,1.83203125,4.75390625,0.04296875,0.005859375,-0.037109375,14.375,-6.8125,-40.4375,14.375,-6.8125,-40.4375,-0.002791013274407852,-0.49509775979936765,0.11397333467176968,0.8613248501409595,22.3697709072651,58.45656320775747,-167.0020405414828,0.6123046875,0.4305419921875,0.26959228515625,-0.6058349609375,22.514953422032615,58.41018024344691,-76.69323239631328,0.6279262195494798,,,,3,0,3,3
1788939311.7864957,4573311553.0,-8.27734375,1.91015625,4.75390625,0.03515625,0.005859375,-0.03125,14.25,-9.8125,-41.8125,14.25,-9.8125,-41.8125,-0.0026980852444555875,-0.49504783422951126,0.11385978214633967,0.8613688595313115,22.335352157517555,58.45430325597555,-167.03476923194137,0.6123046875,0.4305419921875,0.26959228515625,-0.6058349609375,22.514953422032615,58.41018024344691,-76.69323239631328,0.6299363664151248,,,,3,0,2,3
1788939311.7864957,4573316235.0,-8.3515625,1.984375,4.640625,0.029296875,0.005859375,-0.021484375,14.25,-9.8125,-41.8125,14.25,-9.8125,-41.8125,-0.002674899586288197,-0.49521757783633436,0.11390266668553828,0.8612656837678142,22.35303683926412,58.47569638295238,-167.02217092328024,0.6121826171875,0.4306640625,0.26953125,-0.60595703125,22.52631002906878,58.42248778770236,-76.71742626708665,0.0,,,,3,0,2,3
1788939311.7864957,4573319318.0,-8.35546875,1.984375,4.71484375,0.033203125,0.005859375,-0.01953125,15.4375,-10.625,-40.6875,15.4375,-10.625,-40.6875,-0.0026206693087850166,-0.4952335916841007,0.1140774005449283,0.8612335156303148,22.38200496797358,58.47648110205503,-167.012526919627,0.6121826171875,0.4306640625,0.26953125,-0.60595703125,22.52631002906878,58.42248778770236,-76.71742626708665,0.0,,,,3,0,2,3
1788939311.7864957,4573324071.0,-8.390625,1.94921875,4.75390625,0.033203125,0.005859375,-0.01953125,15.4375,-10.625,-40.6875,15.4375,-10.625,-40.6875,-0.0024971570289669958,-0.495243031590867,0.11434650931723231,0.8611927656886258,22.42154900081884,58.47678066021335,-167.0061441310002,0.6121826171875,0.4306640625,0.26953125,-0.60595703125,22.52631002906878,58.42248778770236,-76.71742626708665,0.0,,,,3,0,2,3
1788939311.801127,4573329254.0,-8.390625,1.984375,4.71484375,0.02734375,0.01171875,-0.01953125,15.4375,-10.625,-40.6875,15.4375,-10.625,-40.6875,-0.0024067481243405745,-0.49530491801479787,0.11461603108704013,0.861121600688123,22.46817234099412,58.48286030343199,-166.98978609221803,0.61199951171875,0.43072509765625,0.26947021484375,-0.60601806640625,22.523721790447404,58.41736048015218,-76.72296881208635,1.107851218561321,,,,3,0,2,3
1788939311.8056316,4573330884.0,-8.39453125,2.0625,4.71484375,0.0234375,0.009765625,-0.017578125,15.4375,-10.625,-40.6875,15.4375,-10.625,-40.6875,-0.0023953811356614988,-0.49531803975834277,0.11470122284587353,0.8611027413246511,22.484186394305492,58.48353038496237,-166.9819137362173,0.61199951171875,0.43072509765625,0.26947021484375,-0.60601806640625,22.523721790447404,58.41736048015218,-76.72296881208635,1.1126495348348469,,,,3,0,2,3
1788939311.8056316,4573335667.0,-8.390625,2.0234375,4.71484375,0.015625,0.01953125,-0.01953125,15.4375,-10.625,-40.6875,15.4375,-10.625,-40.6875,-0.002351586883670348,-0.4953818768276237,0.11493142522894656,0.8610354427343353,22.52814780255707,58.48925527897847,-166.9609659167139,0.61187744140625,0.4307861328125,0.26953125,-0.6060791015625,22.517003555798862,58.432183618444796,-76.7417513559625,1.0581172251917157,,,,3,0,2,3
1788939311.8176992,4573338820.0,-8.39453125,2.0625,4.71484375,0.015625,0.01953125,-0.01953125,15.4375,-10.625,-40.6875,15.4375,-10.625,-40.6875,-0.0023349044206137045,-0.4954201399316339,0.11508427619870057,0.8609930560366256,22.55829815851561,58.4922168043328,-166.94506854819613,0.61187744140625,0.4307861328125,0.26953125,-0.6060791015625,22.517003555798862,58.432183618444796,-76.7417513559625,1.0675691686419095,,,,3,0,2,3
1788939311.8236237,4573343403.0,-8.3515625,2.0625,4.75390625,0.01171875,0.01953125,-0.025390625,11.6875,-9.125,-35.25,11.6875,-9.125,-35.25,-0.0022952050010484025,-0.49542665328768576,0.11530225515797225,0.8609602506513598,22.596321216010246,58.490774889198725,-166.92884855934915,0.61187744140625,0.4307861328125,0.26953125,-0.6060791015625,22.517003555798862,58.432183618444796,-76.7417513559625,1.0823300338960447,,,,3,0,3,3
1788939311.8236237,4573347309.0,-8.3515625,2.0625,4.79296875,0.0078125,0.0234375,-0.017578125,11.6875,-9.125,-35.25,11.6875,-9.125,-35.25,-0.0022790197928136465,-0.49541100884300243,0.11548340481539092,0.8609450165940836,22.628117832282314,58.48648582285472,-166.9138244717144,0.61175537109375,0.43084716796875,0.26959228515625,-0.60614013671875,22.510276642357123,58.44701136925398,-76.7605505684628,1.0226422042107877,,,,3,0,3,3
1788939311.8273811,4573351292.0,-8.43359375,2.1015625,4.71484375,0.01171875,0.029296875,-0.025390625,12.3125,-8.625,-35.0625,12.3125,-8.625,-35.0625,-0.00230317383623535,-0.4955089463195122,0.1156347849181082,0.8608682686825841,22.666309086868825,58.49594720081776,-166.8861589120286,0.61175537109375,0.43084716796875,0.26959228515625,-0.60614013671875,22.510276642357123,58.44701136925398,-76.7605505684628,1.0308949892669592,,,,3,0,3,3
1788939311.8313801,4573354998.0,-8.35546875,2.0234375,4.71484375,0.005859375,0.033203125,-0.0234375,12.3125,-8.625,-35.0625,12.3125,-8.625,-35.0625,-0.002339531209116888,-0.4955741354806772,0.11578451505911665,0.8608105185863066,22.703108383596444,58.50097923082941,-166.85881907859678,0.61163330078125,0.43096923828125,0.2696533203125,-0.60614013671875,22.51884116032498,58.46418690887506,-76.76088612983503,1.0990281299351086,,,,3,0,3,3
1788939311.8334582,4573359151.0,-8.4296875,1.984375,4.75390625,0.005859375,0.033203125,-0.0234375,12.3125,-8.625,-35.0625,12.3125,-8.625,-35.0625,-0.002220108720880855,-0.49576246843197164,0.11577107724601064,0.8607041905816446,22.701927352854995,58.528023701626665,-166.86831584854122,0.61163330078125,0.43096923828125,0.2696533203125,-0.60614013671875,22.51884116032498,58.46418690887506,-76.76088612983503,1.1059498153268137,,,,3,0,3,3
1788939311.8381064,4573362934.0,-8.390625,1.984375,4.71484375,0.0,0.02734375,-0.0390625,11.5,-9.375,-34.25,11.5,-9.375,-34.25,-0.002129138740614862,-0.4958154724436851,0.11591174049885711,0.8606549555241021,22.723394355379792,58.534925463370946,-166.86625378819681,0.61163330078125,0.43096923828125,0.2696533203125,-0.60614013671875,22.51884116032498,58.46418690887506,-76.76088612983503,1.1203738370841043,,,,3,0,3,3
1788939311.8431017,4573366440.0,-8.3515625,1.94921875,4.6796875,-0.001953125,0.03515625,-0.0390625,11.5,-9.375,-34.25,11.5,-9.375,-34.25,-0.002037547938265341,-0.4958837161648414,0.11603399090534319,0.8605993849611588,22.742375249887136,58.54404717449439,-166.86512192259627,0.61151123046875,0.4310302734375,0.26983642578125,-0.606201171875,22.502642015485563,58.495390189100085,-76.79113319735289,0.5294400329276735,,,,3,0,3,3
1788939311.8475585,4573370023.0,-8.3125,1.91015625,4.75390625,-0.001953125,0.02734375,-0.03125,10.75,-7.5,-34.5,10.75,-7.5,-34.5,-0.0020074211785995645,-0.49591821590433105,0.11583973481297545,0.8606057455263336,22.704729104848997,58.55211374869652,-166.88871239011837,0.61151123046875,0.4310302734375,0.26983642578125,-0.606201171875,22.502642015485563,58.495390189100085,-76.79113319735289,0.5070831182907396,,,,3,0,3,3
1788939311.8495975,4573374576.0,-8.3515625,1.91015625,4.71484375,-0.001953125,0.02734375,-0.03125,10.75,-7.5,-34.5,10.75,-7.5,-34.5,-0.001967431081147412,-0.4959993192634078,0.11558016152770934,0.8605939987975779,22.656911523852987,58.56729745685253,-166.91762301343175,0.61151123046875,0.4310302734375,0.26983642578125,-0.606201171875,22.502642015485563,58.495390189100085,-76.79113319735289,0.4777204112800122,,,,3,0,3,3
1788939311.853005,4573378859.0,-8.35546875,1.94921875,4.6015625,0.0078125,0.03125,-0.0390625,10.75,-7.5,-34.5,10.75,-7.5,-34.5,-0.0019269465394084464,-0.496163031091435,0.11537034732096534,0.8605278707945686,22.624365969758056,58.59217219203128,-166.93528028255687,0.611328125,0.4310302734375,0.27001953125,-0.60626220703125,22.469102663975338,58.514876287981686,-76.82040657493013,0.9328679494322581,,,,3,0,3,3
1788939311.8579588,4573382065.0,-8.3125,1.91015625,4.75390625,0.005859375,0.03125,-0.041015625,10.75,-7.5,-34.5,10.75,-7.5,-34.5,-0.0018841227327032848,-0.49619643464553875,0.115202212424637,0.8605312304495709,22.590294945828393,58.60001643078027,-166.9585828824561,0.611328125,0.4310302734375,0.27001953125,-0.60626220703125,22.469102663975338,58.514876287981686,-76.82040657493013,0.9245804661796726,,,,3,0,3,3
1788939311.8652985,4573386748.0,-8.3515625,1.984375,4.640625,-0.005859375,0.02734375,-0.041015625,10.75,-7.5,-34.5,10.75,-7.5,-34.5,-0.0018870004471869312,-0.49634574200901066,0.11493702429168043,0.8604805773902224,22.550457907926948,58.62279022963145,-166.97524562856026,0.6112060546875,0.43109130859375,0.2701416015625,-0.6063232421875,22.45758476465067,58.537913697560384,-76.84502524040315,0.49171856605118935,,,,3,0,3,3
1788939311.8682945,4573390031.0,-8.39453125,1.94921875,4.640625,-0.0078125,0.021484375,-0.0390625,11.1875,-9.625,-38.375,11.1875,-9.625,-38.375,-0.0018086648570844934,-0.4964349980427122,0.11501098650447038,0.8604193712562702,22.56301169963492,58.634960419090405,-166.97526916424107,0.6112060546875,0.43109130859375,0.2701416015625,-0.6063232421875,22.45758476465067,58.537913697560384,-76.84502524040315,0.512429704666805,,,,3,0,3,3
1788939311.8707104,4573393507.0,-8.3515625,1.83203125,4.79296875,-0.0078125,0.021484375,-0.0390625,11.1875,-9.625,-38.375,11.1875,-9.625,-38.375,-0.0016410173074231313,-0.4963871575466296,0.11497273301916865,0.8604524202691728,22.535401215715467,58.63376855146297,-167.01383546760997,0.6112060546875,0.43109130859375,0.2701416015625,-0.6063232421875,22.45758476465067,58.537913697560384,-76.84502524040315,0.5287789979331137,,,,3,0,3,3
1788939311.8729985,4573398390.0,-8.390625,1.91015625,4.6796875,-0.005859375,0.01953125,-0.041015625,11.1875,-9.625,-38.375,11.1875,-9.625,-38.375,-0.0014616273010889986,-0.49649510128622165,0.11508317419568345,0.860375697623697,22.546046115413912,58.65033941312037,-167.02727891104254,0.61102294921875,0.43109130859375,0.27032470703125,-0.60638427734375,22.42397360263561,58.557399709656494,-76.87439820191386,0.9883240006272156,,,,3,0,3,3
1788939311.8782618,4573402173.0,-8.35546875,1.91015625,4.6796875,-0.00390625,0.01953125,-0.037109375,11.1875,-9.625,-38.375,11.1875,-9.625,-38.375,-0.0013251637669605225,-0.49655316016963363,0.11519310872280582,0.8603276996408502,22.55740529715838,58.65952052581984,-167.03651272457705,0.61102294921875,0.43109130859375,0.27032470703125,-0.60638427734375,22.42397360263561,58.557399709656494,-76.87439820191386,1.0054476126875005,,,,3,0,3,3
1788939311.8850484,4573405979.0,-8.31640625,1.87109375,4.640625,-0.005859375,0.013671875,-0.041015625,11.1875,-9.625,-38.375,11.1875,-9.625,-38.375,-0.0011530810851591836,-0.4966291333492193,0.11525638717190358,0.8602756183508253,22.5575024810152,58.67257594899172,-167.0559845364856,0.61090087890625,0.43109130859375,0.2705078125,-0.6064453125,22.395667482475133,58.58051095635056,-76.90567204817462,0.8533457896447664,,,,3,0,3,3
1788939311.8830519,4573410062.0,-8.35546875,1.83203125,4.640625,-0.01171875,0.0,-0.02734375,14.5625,-9.875,-42.125,14.5625,-9.875,-42.125,-0.0010690192881431609,-0.49670043227308286,0.11502145670889122,0.8602660066944751,22.509053504429186,58.68723608900889,-167.091347481658,0.61090087890625,0.43109130859375,0.2705078125,-0.6064453125,22.395667482475133,58.58051095635056,-76.90567204817462,0.8428026740012912,,,,3,0,2,3
1788939311.8850484,4573412862.0,-8.3125,1.79296875,4.75390625,-0.01171875,0.0,-0.02734375,14.5625,-9.875,-42.125,14.5625,-9.875,-42.125,-0.001012214440414583,-0.4966818923242545,0.1148689521012679,0.8602971562793177,22.47279228686222,58.68860543273597,-167.11949497837466,0.61090087890625,0.43109130859375,0.2705078125,-0.6064453125,22.395667482475133,58.58051095635056,-76.90567204817462,0.8358889535416029,,,,3,0,2,3
1788939311.8850484,4573417745.0,-8.3125,1.87109375,4.79296875,-0.001953125,0.001953125,-0.021484375,14.5625,-9.875,-42.125,14.5625,-9.875,-42.125,-0.0009509563546194431,-0.4966040862349977,0.11467050994515858,0.8603686136567464,22.423116889876184,58.683264230216636,-167.15771122323278,0.61083984375,0.4310302734375,0.27056884765625,-0.60650634765625,22.37021931973887,58.58272366458214,-76.92812242848106,0.9715990857952723,,,,3,0,2,3
1788939311.8850484,4573420928.0,-8.35546875,1.91015625,4.640625,0.001953125,0.005859375,-0.015625,15.6875,-7.3125,-40.25,15.6875,-7.3125,-40.25,-0.0009475793748070071,-0.49664297157640547,0.11450736847062494,0.8603679000538192,22.394258251173927,58.690682205871084,-167.1729043980405,0.61083984375,0.4310302734375,0.27056884765625,-0.60650634765625,22.37021931973887,58.58272366458214,-76.92812242848106,0.9620274750442968,,,,3,0,2,3
1788939311.9003072,4573425310.0,-8.31640625,1.87109375,4.6796875,-0.0078125,0.001953125,-0.01171875,15.6875,-7.3125,-40.25,15.6875,-7.3125,-40.25,-0.0009538345504099192,-0.49667132575047523,0.11426906577586744,0.8603832082180743,22.351229472937934,58.697631095790086,-167.1951192784014,0.61077880859375,0.4310302734375,0.2706298828125,-0.6065673828125,22.35674762897369,58.59307333158199,-76.94976164630725,0.6803528700988727,,,,3,0,2,3
1788939311.9029648,4573428864.0,-8.390625,1.87109375,4.6796875,-0.0078125,0.001953125,-0.01171875,15.6875,-7.3125,-40.25,15.6875,-7.3125,-40.25,-0.0009570644958829163,-0.4967032630002599,0.11407465401936598,0.8603905658843588,22.31654431385393,58.70445797812974,-167.2129559906836,0.61077880859375,0.4310302734375,0.2706298828125,-0.6065673828125,22.35674762897369,58.59307333158199,-76.94976164630725,0.6644438595269659,,,,3,0,2,3
1788939311.8989587,4573433246.0,-8.39453125,1.91015625,4.71484375,-0.015625,-0.001953125,-0.005859375,16.125,-8.4375,-35.5625,16.125,-8.4375,-35.5625,-0.0009621637737313002,-0.4967244063834067,0.11382518976210015,0.8604113926021358,22.270735488199318,58.71067837478254,-167.23712502510224,0.61077880859375,0.4310302734375,0.2706298828125,-0.6065673828125,22.35674762897369,58.59307333158199,-76.94976164630725,0.6442475614606473,,,,3,0,3,3
1788939311.9059248,4573436953.0,-8.4296875,1.94921875,4.75390625,-0.0234375,0.001953125,0.0,16.125,-8.4375,-35.5625,16.125,-8.4375,-35.5625,-0.0010061855383158363,-0.49672780716455023,0.11361319250272528,0.8604373978794149,22.234808796366305,58.71311567999754,-167.2513779498765,0.61077880859375,0.43096923828125,0.27069091796875,-0.6065673828125,22.339999443762288,58.59312985526297,-76.956353782973,0.8082177829745407,,,,3,0,3,3
1788939311.9182835,4573441135.0,-8.4296875,1.87109375,4.6796875,-0.01953125,-0.001953125,0.009765625,12.8125,-9.5,-34.375,12.8125,-9.5,-34.375,-0.0009829275974166164,-0.4967491891824925,0.11376602722195893,0.8604048860565628,22.263233686682725,58.71416156935341,-167.2377970964185,0.61077880859375,0.43096923828125,0.27069091796875,-0.6065673828125,22.339999443762288,58.59312985526297,-76.956353782973,0.8198276821049956,,,,3,0,3,3
1788939311.9202902,4573444642.0,-8.390625,1.83203125,4.640625,-0.029296875,-0.005859375,0.009765625,12.8125,-9.5,-34.375,12.8125,-9.5,-34.375,-0.0009585870101475243,-0.4967723243016017,0.11386692628571105,0.860378208706597,22.281720028989067,58.71621939486795,-167.2298374911724,0.61090087890625,0.430908203125,0.270751953125,-0.60650634765625,22.337312364737596,58.594670775139456,-76.94891159245759,0.0,,,,3,0,3,3
1788939311.9202902,4573449195.0,-8.43359375,1.79296875,4.71484375,-0.029296875,-0.005859375,0.009765625,12.8125,-9.5,-34.375,12.8125,-9.5,-34.375,-0.0008787410603688357,-0.49677802368110235,0.11398784046799165,0.860358992064993,22.297196720860626,58.7171777509503,-167.23128980373136,0.61090087890625,0.430908203125,0.270751953125,-0.60650634765625,22.337312364737596,58.594670775139456,-76.94891159245759,0.10240758880161353,,,,3,0,3,3
1788939311.9283824,4573452978.0,-8.43359375,1.83203125,4.75390625,-0.0234375,0.0,0.021484375,11.375,-9.0625,-35.25,11.375,-9.0625,-35.25,-0.0007842898133876379,-0.4967566497377978,0.11407892264113427,0.8603593523870159,22.30358248106678,58.71551928013142,-167.24060864435722,0.61090087890625,0.430908203125,0.270751953125,-0.60650634765625,22.337312364737596,58.594670775139456,-76.94891159245759,0.1851733541741573,,,,3,0,3,3
1788939311.9261255,4573456484.0,-8.43359375,1.87109375,4.75390625,-0.017578125,-0.009765625,0.029296875,11.375,-9.0625,-35.25,11.375,-9.0625,-35.25,-0.000739690174529347,-0.4967164680653578,0.11421623956268158,0.8603643727115171,22.3225692383119,58.70954167164112,-167.23712253010262,0.61102294921875,0.43084716796875,0.270751953125,-0.6064453125,22.339390710371926,58.588016060538564,-76.93570214406384,0.0,,,,3,0,3,3
1788939311.9283824,4573460067.0,-8.3515625,1.91015625,4.75390625,-0.00390625,-0.00390625,0.03125,11.4375,-8.5,-34.4375,11.4375,-8.5,-34.4375,-0.00073994089753654,-0.4965904249597403,0.11431884295697055,0.8604235029744086,22.3334400631938,58.69207545694236,-167.23530388608552,0.61102294921875,0.43084716796875,0.270751953125,-0.6064453125,22.339390710371926,58.588016060538564,-76.93570214406384,0.0,,,,3,0,3,3
1788939311.9283824,4573464420.0,-8.31640625,1.94921875,4.83203125,-0.00390625,-0.00390625,0.03125,11.4375,-8.5,-34.4375,11.4375,-8.5,-34.4375,-0.0008047879727112161,-0.49642874431538764,0.11440906887940334,0.8605047466992349,22.345980750256746,58.668648885794035,-167.2254560876723,0.61102294921875,0.43084716796875,0.270751953125,-0.6064453125,22.339390710371926,58.588016060538564,-76.93570214406384,0.0,,,,3,0,3,3
1788939311.940593,4573468603.0,-8.234375,1.984375,4.79296875,0.009765625,-0.001953125,0.01953125,11.4375,-8.5,-34.4375,11.4375,-8.5,-34.4375,-0.0008592453501852463,-0.4962869768992145,0.11454435055180152,0.8605684691030301,22.367471684015207,58.64734222474531,-167.21129150229265,0.611083984375,0.43084716796875,0.27069091796875,-0.6063232421875,22.356217835823717,58.571889116268466,-76.89636863024373,1.1020363689480301,,,,3,0,3,3
1788939311.9449522,4573472385.0,-8.234375,2.0234375,4.79296875,0.015625,-0.005859375,0.013671875,11.6875,-7.125,-34.6875,11.6875,-7.125,-34.6875,-0.0009293626759065421,-0.4962229866171243,0.11445198668964902,0.8606175844012196,22.35241113012433,58.63883285698391,-167.21282980581285,0.611083984375,0.43084716796875,0.27069091796875,-0.6063232421875,22.356217835823717,58.571889116268466,-76.89636863024373,1.0918073060165505,,,,3,0,3,3
1788939311.95398,4573476092.0,-8.23828125,2.0625,4.83203125,0.0234375,0.01171875,0.00390625,11.6875,-7.125,-34.6875,11.6875,-7.125,-34.6875,-0.0009863057884383372,-0.4961773170817093,0.11438411162684123,0.860652875567047,22.341988636894744,58.63261456079312,-167.21285676287732,0.611083984375,0.430908203125,0.2706298828125,-0.6063232421875,22.372955643119127,58.57182525870839,-76.88978342852813,0.9529686700413115,,,,3,0,3,3
1788939311.9567056,4573480851.0,-8.19921875,2.140625,4.83203125,0.029296875,0.013671875,0.00390625,11.875,-10.6875,-36.375,11.875,-10.6875,-36.375,-0.0009724107116068619,-0.49613132555273437,0.11467418590838512,0.8606408038833296,22.39285533546624,58.62287122000614,-167.18789143933176,0.611083984375,0.430908203125,0.2706298828125,-0.6063232421875,22.372955643119127,58.57182525870839,-76.88978342852813,0.9723025396340539,,,,3,0,3,3
1788939311.9567056,4573484957.0,-8.234375,2.17578125,4.83203125,0.03125,0.013671875,-0.0078125,11.875,-10.6875,-36.375,11.875,-10.6875,-36.375,-0.0009411983707103542,-0.49609941371618194,0.11491777462581296,0.8606267430954829,22.434055445822302,58.61602939575697,-167.1700623912892,0.61102294921875,0.4310302734375,0.27056884765625,-0.6063232421875,22.396331776433872,58.576265273989414,-76.88053122241949,0.9947981696543506,,,,3,0,3,3
1788939311.9527705,4573489940.0,-8.23828125,2.140625,4.90625,0.029296875,0.01953125,-0.021484375,11.875,-10.6875,-36.375,11.875,-10.6875,-36.375,-0.0008712589894121332,-0.4960556569738202,0.11518214098265923,0.8606166977759007,22.4744843728549,58.608365216815145,-167.15805126955843,0.61102294921875,0.4310302734375,0.27056884765625,-0.6063232421875,22.396331776433872,58.576265273989414,-76.88053122241949,1.0174225229904632,,,,3,0,3,3
1788939311.9567056,4573491517.0,-8.23828125,2.140625,4.90625,0.029296875,0.01953125,-0.021484375,11.1875,-10.125,-38.8125,11.1875,-10.125,-38.8125,-0.0008574628418136474,-0.4960306252908295,0.11525430805484391,0.8606214777739762,22.485135384143646,58.604483755392394,-167.15475315404436,0.61102294921875,0.4310302734375,0.27056884765625,-0.6063232421875,22.396331776433872,58.576265273989414,-76.88053122241949,1.0233060029222376,,,,3,0,3,3
1788939311.9737782,4573496200.0,-8.27734375,2.1015625,4.83203125,0.021484375,0.033203125,-0.03125,11.1875,-10.125,-38.8125,11.1875,-10.125,-38.8125,-0.0008012329696927655,-0.49600772632462725,0.11546620137384711,0.8606063268372457,22.518368650810885,58.599884194484666,-167.14427675404042,0.61083984375,0.43115234375,0.27056884765625,-0.60638427734375,22.400905960859568,58.58742961511596,-76.89105449514585,1.2771121082056238,,,,3,0,3,3
1788939311.974994,4573499406.0,-8.27734375,2.1015625,4.83203125,0.0234375,0.03515625,-0.033203125,11.1875,-10.125,-38.8125,11.1875,-10.125,-38.8125,-0.0007588923824644827,-0.4959941559160924,0.11561162197436269,0.860594663150947,22.54094742077,58.597094281733796,-167.1376244353646,0.61083984375,0.43115234375,0.27056884765625,-0.60638427734375,22.400905960859568,58.58742961511596,-76.89105449514585,1.2876915108169673,,,,3,0,3,3
1788939311.978929,4573503359.0,-8.2734375,2.140625,4.71484375,0.0234375,0.03515625,-0.033203125,14.625,-8.8125,-41.25,14.625,-8.8125,-41.25,-0.000827566012973932,-0.4960325236818126,0.11551270984938303,0.8605857682111635,22.531653747029385,58.601657829590486,-167.13265370853924,0.61083984375,0.43115234375,0.27056884765625,-0.60638427734375,22.400905960859568,58.58742961511596,-76.89105449514585,1.2780512257631402,,,,3,0,2,3
1788939311.976976,4573508942.0,-8.3125,2.1015625,4.75390625,0.033203125,0.037109375,-0.048828125,14.625,-8.8125,-41.25,14.625,-8.8125,-41.25,-0.0008283455207427162,-0.49609014843538657,0.11533868112951003,0.8605758927046234,22.502507933558064,58.61150118000749,-167.1468003190839,0.61065673828125,0.43133544921875,0.27069091796875,-0.6064453125,22.4079574142577,58.62314454373257,-76.91230128683812,0.7766333866447289,,,,3,0,2,3
1788939311.971963,4573511248.0,-8.3515625,2.0625,4.75390625,0.02734375,0.041015625,-0.052734375,14.625,-8.8125,-41.25,14.625,-8.8125,-41.25,-0.0008168467317070599,-0.4961281407753733,0.11524427680149064,0.8605666489916336,22.485962935202878,58.617994958388856,-167.15618879492294,0.61065673828125,0.43133544921875,0.27069091796875,-0.6064453125,22.4079574142577,58.62314454373257,-76.91230128683812,0.7692569593731527,,,,3,0,2,3
1788939311.978929,4573514954.0,-8.390625,2.0234375,4.71484375,0.029296875,0.04296875,-0.060546875,14.625,-8.8125,-41.25,14.625,-8.8125,-41.25,-0.0007664055096932684,-0.4962321996676654,0.11506715542058484,0.8605303982887531,22.45429324855394,58.635055477404634,-167.17675499258743,0.6103515625,0.43145751953125,0.27081298828125,-0.6065673828125,22.38891059443113,58.649255435210385,-76.94846510103952,1.1095210024723634,,,,3,0,2,3
1788939311.9865503,4573519137.0,-8.43359375,1.984375,4.640625,0.017578125,0.037109375,-0.064453125,14.625,-8.8125,-41.25,14.625,-8.8125,-41.25,-0.0006874536763204154,-0.49639673699001313,0.11484749086938881,0.860464909658794,22.415811025546855,58.661114070069786,-167.20273743778856,0.6103515625,0.43145751953125,0.27081298828125,-0.6065673828125,22.38891059443113,58.649255435210385,-76.94846510103952,1.101269570698457,,,,3,0,2,3
1788939311.9909153,4573522890.0,-8.390625,1.87109375,4.6796875,0.017578125,0.037109375,-0.064453125,14.625,-10.25,-41.4375,14.625,-10.25,-41.4375,-0.00046514936975913644,-0.4965653663494795,0.11474233946157918,0.8603817850891283,22.38499385541817,58.689636607778354,-167.2427750935311,0.6103515625,0.43145751953125,0.27081298828125,-0.6065673828125,22.38891059443113,58.649255435210385,-76.94846510103952,1.1095763578284696,,,,3,0,2,3
1788939311.997463,4573527173.0,-8.39453125,1.83203125,4.75390625,0.021484375,0.0390625,-0.05859375,14.625,-10.25,-41.4375,14.625,-10.25,-41.4375,-0.00021341347164419128,-0.49661933213766096,0.11457004142865626,0.8603736973018583,22.330253398781675,58.705370267165,-167.30385245442187,0.61004638671875,0.43157958984375,0.27099609375,-0.60675048828125,22.361667508382634,58.689391998422074,-77.00826182661646,0.7004035410685587,,,,3,0,2,3
1788939312.0059602,4573531432.0,-8.4296875,1.83203125,4.640625,0.01953125,0.041015625,-0.0546875,14.5,-7.8125,-35.375,14.5,-7.8125,-35.375,-8.775452180819945e-05,-0.4967725521744037,0.11434594779058886,0.8603150748005903,22.28523416160332,58.73121746624203,-167.3399500891595,0.61004638671875,0.43157958984375,0.27099609375,-0.60675048828125,22.361667508382634,58.689391998422074,-77.00826182661646,0.6947401019429679,,,,3,0,3,3
1788939312.0136015,4573538839.0,-8.43359375,1.6796875,4.640625,0.013671875,0.03515625,-0.04296875,14.5,-7.8125,-35.375,14.5,-7.8125,-35.375,0.00013584898165776703,-0.4969953767076434,0.11396023214634284,0.8602375500787172,22.204017902230934,58.77068832648042,-167.40654976440618,0.60980224609375,0.431640625,0.27117919921875,-0.6068115234375,22.334465774255737,58.71340785363856,-77.03529562363458,1.180678361770517,,,,3,0,3,3
1788939312.0195272,4573542621.0,-8.5078125,1.6015625,4.5625,0.013671875,0.029296875,-0.03515625,10.6875,-10.0,-35.4375,10.6875,-10.0,-35.4375,0.0003189107395532084,-0.497126601244509,0.11401072297777103,0.8601549835216378,22.20421115553055,58.791186582317025,-167.42559315212486,0.60980224609375,0.431640625,0.27117919921875,-0.6068115234375,22.334465774255737,58.71340785363856,-77.03529562363458,1.1944522340513373,,,,3,0,3,3
1788939312.0195272,4573546328.0,-8.4296875,1.640625,4.6015625,0.015625,0.017578125,-0.0234375,10.6875,-10.0,-35.4375,10.6875,-10.0,-35.4375,0.0004913122808727338,-0.4972119135308137,0.1141026227128283,0.860093403733178,22.21024484696717,58.80500342062311,-167.44154815011788,0.60968017578125,0.43170166015625,0.27130126953125,-0.60687255859375,22.322771070877053,58.73651983010494,-77.06022988344557,0.9318323237304744,,,,3,0,3,3
1788939312.0195272,4573550687.0,-8.51171875,1.640625,4.5625,0.015625,0.00390625,-0.0078125,11.6875,-8.0625,-34.75,11.6875,-8.0625,-34.75,0.0005965627367203626,-0.49732407877198004,0.11396145997930349,0.8600472024405917,22.180185873320806,58.82390701416971,-167.46812996637473,0.60968017578125,0.43170166015625,0.27130126953125,-0.60687255859375,22.322771070877053,58.73651983010494,-77.06022988344557,0.9327610309297723,,,,3,0,3,3
1788939312.0297015,4573554264.0,-8.5078125,1.48828125,4.6015625,0.015625,0.00390625,-0.0078125,11.6875,-8.0625,-34.75,11.6875,-8.0625,-34.75,0.0006955052767818554,-0.49739164468719155,0.11382940126438341,0.8600255435018035,22.149394728035745,58.836863588427036,-167.4958204882536,0.60968017578125,0.43170166015625,0.27130126953125,-0.60687255859375,22.322771070877053,58.73651983010494,-77.06022988344557,0.9341031902150946,,,,3,0,3,3
1788939312.0312123,4573558446.0,-8.4296875,1.56640625,4.6015625,0.029296875,0.01171875,0.00390625,11.6875,-8.0625,-34.75,11.6875,-8.0625,-34.75,0.0007992946437340481,-0.497477553817415,0.11370766376646871,0.8599918672735721,22.121344239445612,58.852112819403146,-167.5219972015806,0.60955810546875,0.43182373046875,0.27130126953125,-0.60693359375,22.3326679842308,58.75138746331231,-77.07271701502799,0.667558199095759,,,,3,0,3,3
1788939312.0201447,4573562529.0,-8.47265625,1.7578125,4.5234375,0.037109375,0.005859375,0.0234375,11.6875,-8.125,-35.0625,11.6875,-8.125,-35.0625,0.0008413110582410067,-0.49760424000125353,0.1136807061011198,0.8599220950695643,22.120651838293856,58.86961563087229,-167.52354937218567,0.60955810546875,0.43182373046875,0.27130126953125,-0.60693359375,22.3326679842308,58.75138746331231,-77.07271701502799,0.6714807579478158,,,,3,0,3,3
1788939312.0289989,4573566135.0,-8.47265625,1.94921875,4.5625,0.046875,-0.0078125,0.033203125,11.6875,-8.125,-35.0625,11.6875,-8.125,-35.0625,0.00081079912833173,-0.4977066977604112,0.11376429372430803,0.8598517727391214,22.14697580136266,58.88063461413678,-167.50144664249225,0.60955810546875,0.43194580078125,0.2711181640625,-0.60693359375,22.371083366306298,58.74309927574152,-77.0536106945225,0.596105621555486,,,,3,0,3,3
1788939312.0457888,4573569718.0,-8.43359375,1.984375,4.640625,0.041015625,-0.01953125,0.033203125,12.0,-10.1875,-33.25,12.0,-10.1875,-33.25,0.0008180527855157411,-0.4976767293312898,0.11402597822728855,0.8598344492755916,22.194521745616665,58.87324080147037,-167.47677615888574,0.60955810546875,0.43194580078125,0.2711181640625,-0.60693359375,22.371083366306298,58.74309927574152,-77.0536106945225,0.6171680583297621,,,,3,0,3,3
1788939312.0457888,4573574901.0,-8.390625,2.1015625,4.640625,0.037109375,-0.021484375,0.021484375,12.0,-10.1875,-33.25,12.0,-10.1875,-33.25,0.0008249839348146038,-0.4976206044585574,0.11438616673641461,0.8598190846213851,22.25921815509912,58.86109146989119,-167.44335701689778,0.60955810546875,0.43206787109375,0.2708740234375,-0.60693359375,22.414264637894053,58.726599543156055,-77.02872300803811,0.8630919516887358,,,,3,0,3,3
1788939312.0438356,4573578954.0,-8.35546875,2.0625,4.640625,0.037109375,-0.021484375,0.021484375,12.0,-10.1875,-33.25,12.0,-10.1875,-33.25,0.0008355221764668894,-0.49757338876581564,0.11466851542316467,0.8598087905258021,22.309167080808756,58.851281015580625,-167.4183657144958,0.60955810546875,0.43206787109375,0.2708740234375,-0.60693359375,22.414264637894053,58.726599543156055,-77.02872300803811,0.8806199403648955,,,,3,0,3,3
1788939312.054933,4573581937.0,-8.35546875,2.0234375,4.71484375,0.02734375,-0.0234375,0.025390625,11.4375,-8.0,-34.4375,11.4375,-8.0,-34.4375,0.0007133843779823909,-0.4974810431549473,0.11472248671779413,0.85985513537193,22.3255429591983,58.83570821387217,-167.39660439513204,0.60955810546875,0.43206787109375,0.2708740234375,-0.60693359375,22.414264637894053,58.726599543156055,-77.02872300803811,0.8722442376110792,,,,3,0,3,3
1788939312.0618992,4573585843.0,-8.27734375,2.1015625,4.75390625,0.009765625,-0.021484375,0.01953125,11.4375,-8.0,-34.4375,11.4375,-8.0,-34.4375,0.000582012950542925,-0.49733970300842456,0.11482049393979323,0.8599239124735625,22.347876806133947,58.81305374770879,-167.3719911684931,0.609619140625,0.43212890625,0.27069091796875,-0.60693359375,22.44599785170187,58.713788447501436,-77.01233564743801,0.6090985693925329,,,,3,0,3,3
1788939312.057964,4573589250.0,-8.3125,2.33203125,4.75390625,0.01171875,-0.005859375,0.021484375,11.4375,-8.0,-34.4375,11.4375,-8.0,-34.4375,0.00045489400126322765,-0.4972757130924194,0.11497402810857317,0.8599404811382951,22.38583289608043,58.79948832616323,-167.33658732426863,0.609619140625,0.43212890625,0.27069091796875,-0.60693359375,22.44599785170187,58.713788447501436,-77.01233564743801,0.6065317244111239,,,,3,0,3,3
1788939312.0618992,4573593203.0,-8.39453125,1.91015625,4.71484375,0.01171875,-0.005859375,0.021484375,11.75,-9.75,-39.0625,11.75,-9.75,-39.0625,0.0005168993343043797,-0.4972241418009837,0.11518817226548474,0.8599416088290476,22.417047897108496,58.791404725300495,-167.32888063839889,0.609619140625,0.43212890625,0.27069091796875,-0.60693359375,22.44599785170187,58.713788447501436,-77.01233564743801,0.6335942358482449,,,,3,0,3,3
1788939312.057964,4573598785.0,-8.27734375,1.984375,4.90625,-0.00390625,-0.01171875,0.00390625,11.75,-9.75,-39.0625,11.75,-9.75,-39.0625,0.0004927126991726224,-0.4970083957986678,0.11527544708415051,0.8600546395662196,22.421138338125633,58.76220386740953,-167.33081306065432,0.60968017578125,0.43212890625,0.27056884765625,-0.60693359375,22.460913985979904,58.70101411102089,-77.00258651501434,0.542480057144099,,,,3,0,3,3
1788939312.0798156,4573601092.0,-8.3515625,2.0625,4.75390625,-0.001953125,0.0,0.013671875,11.75,-9.75,-39.0625,11.75,-9.75,-39.0625,0.0004530991170416508,-0.4969661664054163,0.11538525347254353,0.8600643391227025,22.443274891909777,58.75424643910531,-167.31479357798267,0.60968017578125,0.43212890625,0.27056884765625,-0.60693359375,22.460913985979904,58.70101411102089,-77.00258651501434,0.5488120656983598,,,,3,0,3,3
1788939312.0798156,4573604798.0,-8.390625,2.0234375,4.75390625,0.005859375,0.005859375,0.00390625,11.75,-9.75,-39.0625,11.75,-9.75,-39.0625,0.0004274781675817589,-0.49691469328072924,0.11557111612099245,0.8600691379085074,22.47792787858242,58.744359085103035,-167.29390831309567,0.60968017578125,0.43212890625,0.27056884765625,-0.60693359375,22.460913985979904,58.70101411102089,-77.00258651501434,0.5657333294684073,,,,3,0,3,3
1788939312.0807693,4573609081.0,-8.43359375,2.1015625,4.75390625,0.0,0.0078125,-0.00390625,11.75,-9.75,-39.0625,11.75,-9.75,-39.0625,0.0003795195173288366,-0.49689114431633874,0.11577017338150061,0.8600559944678909,22.519324569385347,58.73723691177986,-167.26544187349782,0.60968017578125,0.43212890625,0.27056884765625,-0.60693359375,22.460913985979904,58.70101411102089,-77.00258651501434,0.5815814754802663,,,,3,0,3,3
1788939312.0851343,4573612734.0,-8.4296875,2.1015625,4.6796875,0.0,0.0078125,-0.00390625,15.375,-9.75,-40.9375,15.375,-9.75,-40.9375,0.00023058225242572118,-0.4969557269714666,0.11582410643505471,0.8600114700575844,22.549313486456075,58.74081153843146,-167.2273445243712,0.60968017578125,0.43212890625,0.27056884765625,-0.60693359375,22.460913985979904,58.70101411102089,-77.00258651501434,0.5685872084205053,,,,3,0,2,3
1788939312.0938644,4573616640.0,-8.390625,1.984375,4.71484375,0.005859375,0.001953125,-0.015625,15.375,-9.75,-40.9375,15.375,-9.75,-40.9375,0.00018925894420448295,-0.49695426240003504,0.11565208446158037,0.8600354763747718,22.520399336996284,58.74210380028125,-167.23821160364167,0.60968017578125,0.43212890625,0.27056884765625,-0.60693359375,22.460913985979904,58.70101411102089,-77.00258651501434,0.5431351998763131,,,,3,0,2,3
1788939312.0938644,4573620623.0,-8.39453125,2.0234375,4.6796875,0.005859375,0.009765625,-0.01953125,14.0,-9.25,-41.0625,14.0,-9.25,-41.0625,0.00011983310249023198,-0.49701846300537206,0.11548115437296214,0.8600213579071704,22.499164873415854,58.75097117348945,-167.23893797735954,0.60968017578125,0.43212890625,0.27056884765625,-0.60693359375,22.460913985979904,58.70101411102089,-77.00258651501434,0.5135936492752552,,,,3,0,2,3
1788939312.0938644,4573625106.0,-8.39453125,1.94921875,4.640625,0.00390625,0.017578125,-0.0234375,14.0,-9.25,-41.0625,14.0,-9.25,-41.0625,0.00012296588217328467,-0.49714088247394445,0.11526001919536118,0.8599802647895499,22.46502092313943,58.769794121577675,-167.25422600210732,0.60955810546875,0.43218994140625,0.2706298828125,-0.60699462890625,22.454053556237895,58.715928235154685,-77.02165894934187,0.27308808020655284,,,,3,0,2,3
1788939312.1039493,4573628759.0,-8.390625,1.91015625,4.640625,0.00390625,0.017578125,-0.0234375,14.0,-9.25,-41.0625,14.0,-9.25,-41.0625,0.00014620304048784243,-0.49723314957108755,0.11507328009929992,0.8599519252838937,22.433295090532432,58.78480597563865,-167.2717901434021,0.60955810546875,0.43218994140625,0.2706298828125,-0.60699462890625,22.454053556237895,58.715928235154685,-77.02165894934187,0.23867402253566353,,,,3,0,2,3
1788939312.1059024,4573632842.0,-8.43359375,1.91015625,4.5625,0.00390625,0.013671875,-0.013671875,15.125,-6.9375,-35.5625,15.125,-6.9375,-35.5625,0.00015605334334597108,-0.49732634353125066,0.11487404988469975,0.8599246689915798,22.400576434531576,58.799776081289465,-167.2881645909074,0.60955810546875,0.43218994140625,0.2706298828125,-0.60699462890625,22.454053556237895,58.715928235154685,-77.02165894934187,0.19316582839459776,,,,3,0,3,3
1788939312.110016,4573636548.0,-8.43359375,1.91015625,4.6015625,0.0078125,0.00390625,-0.013671875,15.125,-6.9375,-35.5625,15.125,-6.9375,-35.5625,0.00016989522671976757,-0.4973854212792077,0.1146963946334477,0.8599142113563455,22.369183801779396,58.81020992059161,-167.30548016989988,0.6094970703125,0.43218994140625,0.27069091796875,-0.60699462890625,22.443901310749318,58.72049267810872,-77.02562090269849,0.7496886487447634,,,,3,0,3,3
1788939312.110016,4573640331.0,-8.43359375,1.94921875,4.6796875,0.013671875,-0.00390625,-0.015625,10.9375,-9.1875,-36.0,10.9375,-9.1875,-36.0,0.00024108639512358096,-0.497403003250206,0.1148721698654323,0.8598805607905281,22.39694752171021,58.811667882674605,-167.29853251715065,0.6094970703125,0.43218994140625,0.27069091796875,-0.60699462890625,22.443901310749318,58.72049267810872,-77.02562090269849,0.7686552506282712,,,,3,0,3,3
1788939312.110016,4573645114.0,-8.39453125,1.94921875,4.6796875,0.01953125,0.001953125,-0.01953125,10.9375,-9.1875,-36.0,10.9375,-9.1875,-36.0,0.0003410514834673552,-0.4974151747947313,0.11511305873259331,0.8598412709779866,22.4339189405906,58.81221845631858,-167.2903256559494,0.60943603515625,0.4322509765625,0.27069091796875,-0.6070556640625,22.44718423570907,58.73084710620227,-77.04074844242929,0.0,,,,3,0,3,3
1788939312.108063,4573649267.0,-8.3515625,2.0625,4.5625,0.01953125,0.001953125,-0.01953125,10.9375,-9.1875,-36.0,10.9375,-9.1875,-36.0,0.0003720661940019615,-0.4974620262125897,0.11530568801925177,0.8597883416013611,22.47107802429816,58.816112482298344,-167.27195608284632,0.60943603515625,0.4322509765625,0.27069091796875,-0.6070556640625,22.44718423570907,58.73084710620227,-77.04074844242929,0.0,,,,3,0,3,3
1788939312.1260848,4573651873.0,-8.3125,2.0625,4.6015625,0.013671875,-0.005859375,-0.033203125,12.0625,-9.5,-34.875,12.0625,-9.5,-34.875,0.0004104527797306992,-0.4974625310289347,0.11542338049598419,0.8597722401808988,22.48982598033112,58.81542613467907,-167.26640216756604,0.60943603515625,0.4322509765625,0.27069091796875,-0.6070556640625,22.44718423570907,58.73084710620227,-77.04074844242929,0.0,,,,3,0,3,3
1788939312.1260848,4573656556.0,-8.2734375,2.0234375,4.6015625,0.015625,-0.015625,-0.0390625,12.0625,-9.5,-34.875,12.0625,-9.5,-34.875,0.0005047687744983323,-0.49743671105989923,0.11563480981345901,0.859758718744858,22.519042548722688,58.81145782192285,-167.2630947448616,0.60931396484375,0.43218994140625,0.27069091796875,-0.607177734375,22.417642759184243,58.727019753292794,-77.07346670680295,0.8326654094870188,,,,3,0,3,3
1788939312.1221497,4573659762.0,-8.3125,2.0625,4.6015625,0.015625,-0.017578125,-0.048828125,12.0625,-9.5,-34.875,12.0625,-9.5,-34.875,0.0005773173970070734,-0.49742422065656083,0.11576972765165645,0.8597477429852884,22.53671018538233,58.809747074988294,-167.26298509159972,0.60931396484375,0.43218994140625,0.27069091796875,-0.607177734375,22.417642759184243,58.727019753292794,-77.07346670680295,0.849187802608876,,,,3,0,3,3
1788939312.1260848,4573663915.0,-8.31640625,2.1015625,4.640625,0.015625,-0.017578125,-0.048828125,11.6875,-10.5,-35.3125,11.6875,-10.5,-35.3125,0.0006871185966971067,-0.4973928165040005,0.11594931272256565,0.8597416302805259,22.557839331354668,58.80594033312958,-167.26638155225083,0.60931396484375,0.43218994140625,0.27069091796875,-0.607177734375,22.417642759184243,58.727019753292794,-77.07346670680295,0.8722523460129823,,,,3,0,3,3
1788939312.1400874,4573669098.0,-8.35546875,2.1015625,4.640625,0.0078125,-0.0234375,-0.041015625,11.6875,-10.5,-35.3125,11.6875,-10.5,-35.3125,0.0008006007055451968,-0.4973454571747332,0.11616441415253942,0.8597398933112055,22.584292433892294,58.799690647265194,-167.26782353115564,0.609130859375,0.43212890625,0.27069091796875,-0.607421875,22.37597658054329,58.731186769159855,-77.13994068726687,0.7061030317625171,,,,3,0,3,3
1788939312.1420405,4573671904.0,-8.3125,2.1015625,4.71484375,-0.009765625,-0.0234375,-0.046875,11.6875,-10.5,-35.3125,11.6875,-10.5,-35.3125,0.0008558638659198954,-0.4973031738885642,0.11625759039902098,0.859751704512423,22.593593512920307,58.79438664536702,-167.27118446863673,0.609130859375,0.43212890625,0.27069091796875,-0.607421875,22.37597658054329,58.731186769159855,-77.13994068726687,0.7207200855595826,,,,3,0,3,3
1788939312.1420405,4573675510.0,-8.3515625,2.1015625,4.6015625,-0.015625,-0.02734375,-0.052734375,11.6875,-10.5,-35.3125,11.6875,-10.5,-35.3125,0.0009327274643682243,-0.49727503068763684,0.11635787429857058,0.8597543364024429,22.60306475599242,58.79132180740168,-167.27674586430868,0.60906982421875,0.4320068359375,0.27069091796875,-0.60760498046875,22.336437034740758,58.72863321000377,-77.19309385000032,0.0,,,,3,0,3,3
1788939312.1400874,4573679840.0,-8.35546875,2.0625,4.640625,-0.015625,-0.02734375,-0.052734375,11.6875,-10.5,-35.3125,11.6875,-10.5,-35.3125,0.0010331007909290025,-0.49723282213333664,0.11648043984140115,0.8597620370953971,22.613436805154855,58.78675440422931,-167.28531003807214,0.60906982421875,0.4320068359375,0.27069091796875,-0.60760498046875,22.336437034740758,58.72863321000377,-77.19309385000032,0.08625491646867423,,,,3,0,3,3
1788939312.157907,4573683446.0,-8.390625,2.0625,4.6796875,-0.0234375,-0.033203125,-0.056640625,11.625,-5.75,-34.8125,11.625,-5.75,-34.8125,0.001054153748486935,-0.4972150580910771,0.11622791267189822,0.8598064590844239,22.561538378382235,58.78874467879395,-167.31761370097703,0.60906982421875,0.4320068359375,0.27069091796875,-0.60760498046875,22.336437034740758,58.72863321000377,-77.19309385000032,0.0,,,,3,0,3,3
1788939312.1621668,4573687153.0,-8.39453125,2.0234375,4.640625,-0.03125,-0.037109375,-0.056640625,11.625,-5.75,-34.8125,11.625,-5.75,-34.8125,0.0010752067936937943,-0.4971996209692636,0.11595322979502375,0.859852446259516,22.505545755092413,58.791341681652234,-167.35212657129458,0.60894775390625,0.4317626953125,0.27081298828125,-0.6077880859375,22.2579069036991,58.72245445438093,-77.25770234152331,0.9346356684608375,,,,3,0,3,3
1788939312.1673932,4573690735.0,-8.39453125,1.984375,4.6796875,-0.03515625,-0.037109375,-0.068359375,11.375,-10.25,-39.4375,11.375,-10.25,-39.4375,0.0011759784425953248,-0.49715442073605864,0.11600860791271188,0.8598709798030465,22.502770913792318,58.787382928815155,-167.3681824851042,0.60894775390625,0.4317626953125,0.27081298828125,-0.6077880859375,22.2579069036991,58.72245445438093,-77.25770234152331,0.9461791831229833,,,,3,0,3,3
1788939312.1673932,4573695618.0,-8.35546875,1.91015625,4.640625,-0.046875,-0.03515625,-0.0625,11.375,-10.25,-39.4375,11.375,-10.25,-39.4375,0.0013351275702380685,-0.4971216611280001,0.11604421753232963,0.8598848824400963,22.491143827883977,58.78677538200121,-167.3962704028074,0.60888671875,0.431396484375,0.27093505859375,-0.6080322265625,22.157440399477178,58.70933337612544,-77.34351615984691,1.1438806031208,,,,3,0,3,3
1788939312.17452,4573699901.0,-8.390625,1.83203125,4.6796875,-0.046875,-0.037109375,-0.056640625,11.375,-10.25,-39.4375,11.375,-10.25,-39.4375,0.0015545773048455402,-0.49708643040768935,0.11602427503417788,0.8599075715428596,22.462545639170738,58.788194791636045,-167.4416816079524,0.60888671875,0.431396484375,0.27093505859375,-0.6080322265625,22.157440399477178,58.70933337612544,-77.34351615984691,1.1558690356350514,,,,3,0,3,3
1788939312.178455,4573702578.0,-8.390625,1.71875,4.6796875,-0.046875,-0.037109375,-0.056640625,14.1875,-9.4375,-42.125,14.1875,-9.4375,-42.125,0.0016203782587336415,-0.4970707352057524,0.11580396889704003,0.8599462188788348,22.41242993959607,58.79106776739692,-167.47868072336968,0.60888671875,0.431396484375,0.27093505859375,-0.6080322265625,22.157440399477178,58.70933337612544,-77.34351615984691,1.1450492534690622,,,,3,0,2,3
1788939312.1801572,4573707260.0,-8.39453125,1.6796875,4.6796875,-0.046875,-0.029296875,-0.05078125,14.1875,-9.4375,-42.125,14.1875,-9.4375,-42.125,0.0017288193254956568,-0.49705831554805363,0.11542688929593733,0.860003881012019,22.328070519409177,58.797677975887616,-167.54019613749966,0.60888671875,0.43109130859375,0.2711181640625,-0.60821533203125,22.0729334273497,58.71040763731172,-77.41839317706005,0.7306840980978981,,,,3,0,2,3
1788939312.1801572,4573710843.0,-8.39453125,1.48828125,4.71484375,-0.05859375,-0.037109375,-0.0390625,14.6875,-9.25,-40.9375,14.6875,-9.25,-40.9375,0.0018012965154731962,-0.49702462041964907,0.1151355992050476,0.860062251132592,22.262368467088336,58.799419816858396,-167.58737965103492,0.60888671875,0.43109130859375,0.2711181640625,-0.60821533203125,22.0729334273497,58.71040763731172,-77.41839317706005,0.7077121530491687,,,,3,0,2,3
1788939312.193077,4573715426.0,-8.43359375,1.41015625,4.71484375,-0.064453125,-0.05078125,-0.021484375,14.6875,-9.25,-40.9375,14.6875,-9.25,-40.9375,0.0018629718861029618,-0.4969565145034207,0.11477304794152068,0.8601499284976872,22.181691517603966,58.79752240699767,-167.64269660527341,0.60894775390625,0.4307861328125,0.271240234375,-0.60833740234375,22.00207088355021,58.70111025239489,-77.47141392397862,0.39344557912448486,,,,3,0,2,3
1788939312.191124,4573719379.0,-8.43359375,1.375,4.71484375,-0.064453125,-0.05078125,-0.021484375,14.6875,-9.25,-40.9375,14.6875,-9.25,-40.9375,0.0019184561398446803,-0.4968982920528219,0.11446110102435571,0.8602250073285014,22.112068065010305,58.79597324592589,-167.69070209617436,0.60894775390625,0.4307861328125,0.271240234375,-0.60833740234375,22.00207088355021,58.70111025239489,-77.47141392397862,0.344753102392099,,,,3,0,2,3
1788939312.193077,4573722385.0,-8.39453125,1.3359375,4.75390625,-0.052734375,-0.044921875,0.001953125,14.6875,-9.25,-40.9375,14.6875,-9.25,-40.9375,0.001938390430720603,-0.49684811096791776,0.11425772234796043,0.8602809832572181,22.06749801224947,58.79299449068844,-167.7198539472148,0.60894775390625,0.4307861328125,0.271240234375,-0.60833740234375,22.00207088355021,58.70111025239489,-77.47141392397862,0.3071199258858544,,,,3,0,2,3
1788939312.193077,4573726392.0,-8.43359375,1.375,4.75390625,-0.033203125,-0.033203125,0.017578125,14.6875,-9.25,-40.9375,14.6875,-9.25,-40.9375,0.0019544779809398897,-0.4968025511344009,0.11403496758843241,0.8603368127479366,22.019921900296097,58.79077070839562,-167.75003294658518,0.609130859375,0.43048095703125,0.271240234375,-0.60833740234375,21.95850233632356,58.671127825631174,-77.48069668811033,0.8005722157368369,,,,3,0,2,3
1788939312.208206,4573730375.0,-8.43359375,1.41015625,4.71484375,-0.02734375,-0.04296875,0.04296875,15.6875,-7.0,-35.8125,15.6875,-7.0,-35.8125,0.00190532847067595,-0.49674297314553806,0.11384017351767572,0.8603971195020446,21.983418045719382,58.78473915576298,-167.76608299771303,0.609130859375,0.43048095703125,0.271240234375,-0.60833740234375,21.95850233632356,58.671127825631174,-77.48069668811033,0.7794919404696037,,,,3,0,3,3
1788939312.2101054,4573738257.0,-8.3515625,1.6015625,4.71484375,-0.0234375,-0.041015625,0.06640625,15.6875,-7.0,-35.8125,15.6875,-7.0,-35.8125,0.0017015193661514966,-0.49660492735141404,0.11351084362530925,0.8605207373106206,21.931483202155956,58.76680133551773,-167.77342795599267,0.609375,0.43035888671875,0.2711181640625,-0.6082763671875,21.969216424911934,58.64718126973652,-77.45990415362951,0.0,,,,3,0,3,3
1788939312.2101054,4573741840.0,-8.39453125,1.6015625,4.79296875,-0.017578125,-0.041015625,0.0703125,12.0625,-6.5625,-34.1875,12.0625,-6.5625,-34.1875,0.001603062528915937,-0.4965322278233087,0.11337513200136504,0.860580766905131,21.910489762426376,58.7570465370966,-167.77488011145473,0.609375,0.43035888671875,0.2711181640625,-0.6082763671875,21.969216424911934,58.64718126973652,-77.45990415362951,0.0,,,,3,0,3,3
1788939312.2207286,4573746523.0,-8.39453125,1.71875,4.83203125,-0.015625,-0.041015625,0.08203125,12.0625,-6.5625,-34.1875,12.0625,-6.5625,-34.1875,0.0014347573065708963,-0.49642085131212627,0.11321933793441281,0.8606658244473916,21.890125762416826,58.740937688478006,-167.7682588087905,0.60968017578125,0.43023681640625,0.2708740234375,-0.60809326171875,22.001701420532363,58.59895146432778,-77.39380190906499,1.0085229227768788,,,,3,0,3,3
1788939312.218761,4573750106.0,-8.3515625,1.83203125,4.79296875,-0.005859375,-0.0390625,0.091796875,11.0,-6.6875,-35.0,11.0,-6.6875,-35.0,0.0012752985352595667,-0.49633464797255394,0.11312661119196606,0.8607279829747775,21.882685360154042,58.72735632578554,-167.7547253619706,0.60968017578125,0.43023681640625,0.2708740234375,-0.60809326171875,22.001701420532363,58.59895146432778,-77.39380190906499,0.9906364640196572,,,,3,0,3,3
1788939312.2207286,4573753982.0,-8.390625,1.94921875,4.75390625,-0.005859375,-0.0390625,0.091796875,11.0,-6.6875,-35.0,11.0,-6.6875,-35.0,0.0010705469830156534,-0.49625707976783334,0.11302814531491026,0.8607859217460117,21.879334738876583,58.713831465189166,-167.7327906222501,0.60968017578125,0.43023681640625,0.2708740234375,-0.60809326171875,22.001701420532363,58.59895146432778,-77.39380190906499,0.9693646303294278,,,,3,0,3,3
1788939312.2207286,4573757889.0,-8.31640625,1.91015625,4.984375,-0.00390625,-0.033203125,0.091796875,11.0,-6.6875,-35.0,11.0,-6.6875,-35.0,0.0008869120014283451,-0.4961213843122023,0.11297049325871099,0.8608719144379896,21.877703677997122,58.69288632488445,-167.714539307424,0.6099853515625,0.43023681640625,0.2706298828125,-0.60791015625,22.057911796559736,58.56706737940908,-77.32628303051743,0.8452248657998923,,,,3,0,3,3
1788939312.2361357,4573762348.0,-8.2734375,2.0625,4.984375,0.005859375,-0.029296875,0.087890625,11.0625,-8.5625,-34.875,11.0625,-8.5625,-34.875,0.0006900712736402205,-0.49590209287884635,0.11317973775177426,0.8609709548192999,21.922842889256252,58.657231994564306,-167.67128643583965,0.6099853515625,0.43023681640625,0.2706298828125,-0.60791015625,22.057911796559736,58.56706737940908,-77.32628303051743,0.8383138741395959,,,,3,0,3,3
1788939312.2361357,4573765654.0,-8.234375,2.140625,4.79296875,0.0078125,-0.017578125,0.08203125,11.0625,-8.5625,-34.875,11.0625,-8.5625,-34.875,0.0005257234607655848,-0.4957957548102473,0.1133928783982032,0.8610042672690712,21.97305502136931,58.636633978236965,-167.62568034096213,0.61029052734375,0.4302978515625,0.27032470703125,-0.60772705078125,22.130740462259173,58.53514523607925,-77.25233543888974,0.48671906796946907,,,,3,0,3,3
1788939312.2341826,4573769884.0,-8.1953125,2.0625,4.83203125,0.0078125,-0.017578125,0.08203125,11.0625,-8.5625,-34.875,11.0625,-8.5625,-34.875,0.0003333394063573049,-0.4956269582450391,0.11362975896783681,0.8610703136344452,22.0263160517164,58.60706941389158,-167.57687489345952,0.61029052734375,0.4302978515625,0.27032470703125,-0.60772705078125,22.130740462259173,58.53514523607925,-77.25233543888974,0.48054545741352034,,,,3,0,3,3
1788939312.2361357,4573773290.0,-8.234375,2.140625,4.83203125,-0.009765625,-0.017578125,0.072265625,11.4375,-9.5,-34.9375,11.4375,-9.5,-34.9375,0.00019925169171380194,-0.49552993348690755,0.11383376775996222,0.8610992501650407,22.072237969631498,58.58850711426864,-167.5372973715136,0.61029052734375,0.4302978515625,0.27032470703125,-0.60772705078125,22.130740462259173,58.53514523607925,-77.25233543888974,0.48264211486942543,,,,3,0,3,3
1788939312.2517035,4573777296.0,-8.23828125,2.17578125,4.90625,0.0,-0.013671875,0.05859375,11.4375,-9.5,-34.9375,11.4375,-9.5,-34.9375,7.060660568995034e-05,-0.49541097351972047,0.11406656369704116,0.8611369120977795,22.12156204277542,58.5668773782286,-167.49728264021414,0.61053466796875,0.43035888671875,0.2701416015625,-0.60748291015625,22.191843422073166,58.51017761799581,-77.17065467934489,0.9285933009569075,,,,3,0,3,3
1788939312.2517035,4573781079.0,-8.27734375,2.17578125,5.0234375,0.005859375,-0.001953125,0.046875,10.375,-9.5625,-35.4375,10.375,-9.5625,-35.4375,-2.0354287238604035e-05,-0.4953036856318928,0.1142695014680843,0.8611717248141636,22.162134870747842,58.548089417125915,-167.46661427913278,0.61053466796875,0.43035888671875,0.2701416015625,-0.60748291015625,22.191843422073166,58.51017761799581,-77.17065467934489,0.9337914783087177,,,,3,0,3,3
1788939312.2517035,4573785662.0,-8.3125,2.29296875,4.79296875,0.009765625,0.005859375,0.041015625,10.375,-9.5625,-35.4375,10.375,-9.5625,-35.4375,-0.00013531218434346474,-0.4952606298865426,0.11455562366393772,0.8611584635024869,22.22538922402385,58.535612847203524,-167.41811592725077,0.61065673828125,0.430419921875,0.27001953125,-0.60736083984375,22.2307225422049,58.497668606225325,-77.12657716198723,1.0317292487328085,,,,3,0,3,3
1788939312.2497504,4573789015.0,-8.27734375,2.29296875,4.79296875,0.009765625,0.005859375,0.041015625,10.375,-9.5625,-35.4375,10.375,-9.5625,-35.4375,-0.00022030135530833278,-0.49522489613821863,0.11476407665954438,0.861151241316347,22.271272464396173,58.525925798369904,-167.38289354247945,0.61065673828125,0.430419921875,0.27001953125,-0.60736083984375,22.2307225422049,58.497668606225325,-77.12657716198723,1.0380975920499906,,,,3,0,3,3
1788939312.2683496,4573792921.0,-8.1953125,2.29296875,4.75390625,0.005859375,0.009765625,0.013671875,10.9375,-8.5625,-38.0,10.9375,-8.5625,-38.0,-0.0003665719598464317,-0.49517304428621983,0.11491171734292843,0.8611613199944681,22.310573897590515,58.51352704646638,-167.3440029719509,0.61065673828125,0.430419921875,0.27001953125,-0.60736083984375,22.2307225422049,58.497668606225325,-77.12657716198723,1.0371722002598833,,,,3,0,3,3
1788939312.2630417,4573796828.0,-8.23828125,2.29296875,4.83203125,-0.009765625,0.013671875,-0.009765625,10.9375,-8.5625,-38.0,10.9375,-8.5625,-38.0,-0.0004816573573041108,-0.4951141891483518,0.11499287846308588,0.8611842692553865,22.333549400979514,58.501991835800446,-167.31843593332968,0.6107177734375,0.43048095703125,0.27001953125,-0.6072998046875,22.25133050072105,58.503650869650265,-77.1099102181313,0.6182470291705061,,,,3,0,3,3
1788939312.2689662,4573800610.0,-8.23828125,2.21484375,4.87109375,-0.01171875,0.021484375,-0.01953125,14.8125,-9.125,-40.1875,14.8125,-9.125,-40.1875,-0.000572388422423822,-0.49505334248179755,0.11498500543987268,0.8612202441844283,22.336946424239645,58.49211920786936,-167.30694293292936,0.6107177734375,0.43048095703125,0.27001953125,-0.6072998046875,22.25133050072105,58.503650869650265,-77.1099102181313,0.6076148026291937,,,,3,0,3,3
1788939312.2689662,4573804993.0,-8.35546875,2.33203125,4.6796875,-0.01171875,0.029296875,-0.021484375,14.8125,-9.125,-40.1875,14.8125,-9.125,-40.1875,-0.000722769071862147,-0.49512870345281057,0.11507009402246028,0.861165441761146,22.373493571161724,58.49659582258554,-167.2647728069513,0.61065673828125,0.43048095703125,0.2701416015625,-0.6072998046875,22.23641863622574,58.51638843074518,-77.11962681387975,0.6918896996913423,,,,3,0,3,3
1788939312.283054,4573808570.0,-8.35546875,2.29296875,4.6796875,-0.01171875,0.029296875,-0.021484375,14.8125,-9.125,-40.1875,14.8125,-9.125,-40.1875,-0.0008522005494199453,-0.49519406078778183,0.11512935372515262,0.8611198219908531,22.402328790227813,58.50070751620913,-167.22991116796567,0.61065673828125,0.43048095703125,0.2701416015625,-0.6072998046875,22.23641863622574,58.51638843074518,-77.11962681387975,0.6849323808830515,,,,3,0,3,3
1788939312.2860553,4573813129.0,-8.3515625,2.21484375,4.71484375,-0.02734375,0.03515625,-0.0390625,13.5625,-9.875,-42.1875,13.5625,-9.875,-42.1875,-0.0009637490735272471,-0.49526423829520977,0.11520203364959064,0.8610696237219075,22.432274047945,58.50567704026896,-167.19656396883812,0.61065673828125,0.43048095703125,0.2701416015625,-0.6072998046875,22.23641863622574,58.51638843074518,-77.11962681387975,0.6814114936249949,,,,3,0,2,3
1788939312.2860553,4573816835.0,-8.3515625,2.0625,4.75390625,-0.02734375,0.03515625,-0.056640625,13.5625,-9.875,-42.1875,13.5625,-9.875,-42.1875,-0.0010610079513772588,-0.49527764310060235,0.11517035434803596,0.8610660369484953,22.43692931839179,58.505368901625964,-167.1810225488838,0.61053466796875,0.43048095703125,0.2703857421875,-0.6072998046875,22.206568372274585,58.54186761954627,-77.13910194804048,0.8289199532044684,,,,3,0,2,3
1788939312.2860553,4573820218.0,-8.47265625,2.1015625,4.640625,-0.0390625,0.037109375,-0.0546875,14.4375,-9.1875,-40.625,14.4375,-9.1875,-40.625,-0.0011006072945306973,-0.4954478728878316,0.11503571554664882,0.8609860498656042,22.42709145609649,58.52786744939432,-167.17560717541397,0.61053466796875,0.43048095703125,0.2703857421875,-0.6072998046875,22.206568372274585,58.54186761954627,-77.13910194804048,0.8137229098873164,,,,3,0,2,3
1788939312.2860553,4573824571.0,-8.46875,2.0234375,4.640625,-0.0390625,0.037109375,-0.0546875,14.4375,-9.1875,-40.625,14.4375,-9.1875,-40.625,-0.0011077806222708402,-0.4956684763816446,0.11479367633730979,0.8608913672563785,22.397000186134218,58.55914720584378,-167.18390686706843,0.61053466796875,0.43048095703125,0.2703857421875,-0.6072998046875,22.206568372274585,58.54186761954627,-77.13910194804048,0.7926313831254853,,,,3,0,2,3
1788939312.3021488,4573828478.0,-8.43359375,1.87109375,4.71484375,-0.04296875,0.03125,-0.060546875,14.4375,-9.1875,-40.625,14.4375,-9.1875,-40.625,-0.0010388170173035503,-0.4957853080730136,0.11447484584652849,0.86086663242721,22.33729750723982,58.580367280037365,-167.22200365528965,0.6103515625,0.430419921875,0.270751953125,-0.60736083984375,22.146421980598127,58.57772356892195,-77.18693435635434,0.8145453901441918,,,,3,0,2,3
1788939312.3064787,4573832460.0,-8.47265625,1.79296875,4.640625,-0.046875,0.025390625,-0.0546875,15.9375,-8.75,-34.875,15.9375,-8.75,-34.875,-0.0009289857178239018,-0.4959459490457332,0.11420948453422494,0.8608094715168333,22.286682391789245,58.607362801591464,-167.25884805763982,0.6103515625,0.430419921875,0.270751953125,-0.60736083984375,22.146421980598127,58.57772356892195,-77.18693435635434,0.8017376854283688,,,,3,0,3,3
1788939312.3064787,4573836167.0,-8.5078125,1.79296875,4.5625,-0.03515625,0.0234375,-0.056640625,15.9375,-8.75,-34.875,15.9375,-8.75,-34.875,-0.0008264139454201761,-0.496110753378124,0.11401921959137977,0.8607398300220304,22.25139139018192,58.63359234176426,-167.2861178545213,0.6102294921875,0.4302978515625,0.27105712890625,-0.607421875,22.084407123506278,58.600876101828305,-77.23170965988714,0.9192593947540897,,,,3,0,3,3
1788939312.3168764,4573839550.0,-8.4296875,1.6015625,4.640625,-0.029296875,0.01953125,-0.048828125,11.5,-7.8125,-36.125,11.5,-7.8125,-36.125,-0.0007389519742508242,-0.49619467859494143,0.11377922470307861,0.8607232905585912,22.202450442523585,58.64992724778994,-167.32179485834803,0.6102294921875,0.4302978515625,0.27105712890625,-0.607421875,22.084407123506278,58.600876101828305,-77.23170965988714,0.9090003029964486,,,,3,0,3,3
1788939312.318844,4573843726.0,-8.43359375,1.48828125,4.71484375,-0.029296875,0.01953125,-0.048828125,11.5,-7.8125,-36.125,11.5,-7.8125,-36.125,-0.0006213466809284391,-0.4962731276966698,0.11348125821177613,0.8607174917992194,22.1389389644119,58.667158015787116,-167.36967290272995,0.6102294921875,0.4302978515625,0.27105712890625,-0.607421875,22.084407123506278,58.600876101828305,-77.23170965988714,0.8980650142473624,,,,3,0,3,3
1788939312.3220553,4573847432.0,-8.47265625,1.56640625,4.5625,-0.03125,0.01953125,-0.03515625,11.5,-7.8125,-36.125,11.5,-7.8125,-36.125,-0.0005465773983704225,-0.49638427946843416,0.11324057442366021,0.8606851460632688,22.092950098715047,58.68660639279177,-167.40119832185965,0.61016845703125,0.43017578125,0.2713623046875,-0.60748291015625,22.027680382760074,58.62766979866634,-77.27839034041797,0.14995975877674061,,,,3,0,3,3
1788939312.3279762,4573852192.0,-8.43359375,1.48828125,4.5625,-0.013671875,0.005859375,-0.015625,11.5,-8.4375,-34.125,11.5,-8.4375,-34.125,-0.0003994237195465333,-0.49650179358338925,0.11304296935124375,0.8606434200697892,22.048267213086284,58.70803739104192,-167.44112269930372,0.61016845703125,0.43017578125,0.2713623046875,-0.60748291015625,22.027680382760074,58.62766979866634,-77.27839034041797,0.14215089774925274,,,,3,0,3,3
1788939312.3320491,4573855498.0,-8.4296875,1.48828125,4.6796875,-0.01171875,-0.001953125,0.0,11.5,-8.4375,-34.125,11.5,-8.4375,-34.125,-0.0003060994180865686,-0.4965378247723782,0.1129032721702609,0.8606410087874673,22.01449366506671,58.71695284417779,-167.4707735956766,0.610107421875,0.43011474609375,0.27142333984375,-0.60748291015625,22.005558708688163,58.624059550726614,-77.2832371212035,1.1193520309197567,,,,3,0,3,3
1788939312.333646,4573859528.0,-8.43359375,1.48828125,4.71484375,-0.01171875,-0.001953125,0.0,11.5,-8.4375,-34.125,11.5,-8.4375,-34.125,-0.0001907522176152959,-0.49656872089855797,0.11273000723908924,0.8606459286527977,21.971675203562924,58.726242418093506,-167.50848622254628,0.610107421875,0.43011474609375,0.27142333984375,-0.60748291015625,22.005558708688163,58.624059550726614,-77.2832371212035,1.1180933981804562,,,,3,0,3,3
1788939312.3355992,4573863634.0,-8.43359375,1.640625,4.6796875,-0.001953125,-0.00390625,0.015625,12.375,-8.0625,-34.625,12.375,-8.0625,-34.625,-0.0001386240589538333,-0.4966116710727416,0.11256181944910622,0.8606431698096582,21.937067242441856,58.73540307377401,-167.53308278503312,0.610107421875,0.43011474609375,0.27142333984375,-0.60748291015625,22.005558708688163,58.624059550726614,-77.2832371212035,1.113835758354942,,,,3,0,3,3
1788939312.3355992,4573867340.0,-8.390625,1.6015625,4.6796875,0.0078125,-0.005859375,0.029296875,12.375,-8.0625,-34.625,12.375,-8.0625,-34.625,-0.00010127486684297912,-0.49663276501760956,0.1124361497854792,0.8606474299478171,21.91060713580373,58.74081012391368,-167.5519609005735,0.61016845703125,0.43011474609375,0.27142333984375,-0.607421875,22.014296714225097,58.62192785111612,-77.26730686820365,1.114073427059822,,,,3,0,3,3
1788939312.3355992,4573870923.0,-8.35546875,1.56640625,4.75390625,0.0,-0.01171875,0.04296875,11.8125,-9.4375,-34.5625,11.8125,-9.4375,-34.5625,1.2233133072072028e-05,-0.4965883699357271,0.11248942655745561,0.8606660906575224,21.906236478089596,58.73723753205244,-167.57049567512806,0.61016845703125,0.43011474609375,0.27142333984375,-0.607421875,22.014296714225097,58.62192785111612,-77.26730686820365,1.1231293809836298,,,,3,0,3,3
1788939312.3517041,4573875706.0,-8.35546875,1.56640625,4.75390625,0.005859375,-0.015625,0.052734375,11.8125,-9.4375,-34.5625,11.8125,-9.4375,-34.5625,0.00015185858871013952,-0.4965191267895067,0.11258292975416742,0.8606938001398192,21.90522854375548,58.73058822258032,-167.59134110645533,0.61029052734375,0.43017578125,0.27130126953125,-0.60736083984375,22.04997633295402,58.61520565014048,-77.24070691668564,0.703264685609416,,,,3,0,3,3
1788939312.3535204,4573878882.0,-8.31640625,1.640625,4.87109375,0.005859375,-0.015625,0.052734375,11.8125,-9.4375,-34.5625,11.8125,-9.4375,-34.5625,0.0001959150882110094,-0.49640875085877595,0.11267067785075123,0.8607459741647127,21.910025411923037,58.71643489944267,-167.59800222568984,0.61029052734375,0.43017578125,0.27130126953125,-0.60736083984375,22.04997633295402,58.61520565014048,-77.24070691668564,0.7129795018847671,,,,3,0,3,3
1788939312.358571,4573882965.0,-8.27734375,1.71875,4.9453125,0.01953125,-0.009765625,0.056640625,11.75,-9.0625,-34.875,11.75,-9.0625,-34.875,0.00019166240016596056,-0.4962502527406936,0.11276878619418752,0.8608245179945863,21.9184268534772,58.69483525963917,-167.59802909284824,0.61029052734375,0.43017578125,0.27130126953125,-0.60736083984375,22.04997633295402,58.61520565014048,-77.24070691668564,0.7185431102490003,,,,3,0,3,3
1788939312.362572,4573886871.0,-8.23828125,1.91015625,4.83203125,0.029296875,-0.001953125,0.060546875,11.75,-9.0625,-34.875,11.75,-9.0625,-34.875,0.0001308207944509004,-0.49612357001533275,0.11301396170061893,0.8608653963436398,21.962914639411295,58.67375807622539,-167.56959914761842,0.6104736328125,0.4302978515625,0.27105712890625,-0.60723876953125,22.115928240752424,58.598101838984284,-77.18578614045383,0.0,,,,3,0,3,3
1788939312.3577864,4573890454.0,-8.234375,1.91015625,4.90625,0.029296875,0.005859375,0.0625,10.75,-9.25,-39.0625,10.75,-9.25,-39.0625,5.564365608198391e-05,-0.495999831706029,0.11313489552275094,0.860920820555776,21.985224760251196,58.65447323093783,-167.5516041765192,0.6104736328125,0.4302978515625,0.27105712890625,-0.60723876953125,22.115928240752424,58.598101838984284,-77.18578614045383,0.0,,,,3,0,3,3
1788939312.3599458,4573894507.0,-8.1953125,1.984375,4.90625,0.029296875,0.005859375,0.0625,10.75,-9.25,-39.0625,10.75,-9.25,-39.0625,-5.3553567396287974e-05,-0.49586169539150354,0.11330693880021728,0.8609777661445173,22.019750825209282,58.63178017035971,-167.52291709232838,0.6104736328125,0.4302978515625,0.27105712890625,-0.60723876953125,22.115928240752424,58.598101838984284,-77.18578614045383,0.0,,,,3,0,3,3
1788939312.368583,4573898414.0,-8.234375,2.1015625,5.0234375,0.0234375,0.005859375,0.05859375,10.75,-9.25,-39.0625,10.75,-9.25,-39.0625,-0.00017229643069514248,-0.49573301783743423,0.11347266273803332,0.8610300227929747,22.05464138340231,58.61013242261578,-167.49250208279972,0.610595703125,0.43048095703125,0.2708740234375,-0.6070556640625,22.186979467787037,58.58790958228741,-77.11643695022389,0.3371354850846845,,,,3,0,3,3
1788939312.368583,4573902196.0,-8.2734375,2.21484375,4.90625,0.033203125,0.0234375,0.0546875,14.9375,-6.5,-38.5625,14.9375,-6.5,-38.5625,-0.0003139763636173967,-0.49572152230859357,0.11344490368021613,0.8610402589704387,22.062862272234753,58.60553642561557,-167.47007822395557,0.610595703125,0.43048095703125,0.2708740234375,-0.6070556640625,22.186979467787037,58.58790958228741,-77.11643695022389,0.29970690303561337,,,,3,0,3,3
1788939312.38139,4573906879.0,-8.23828125,2.17578125,4.90625,0.0390625,0.03515625,0.04296875,14.9375,-6.5,-38.5625,14.9375,-6.5,-38.5625,-0.0004523509022362662,-0.4957317447515618,0.11340552696855653,0.8610394991388128,22.070016914090107,58.60394057632139,-167.44794820269132,0.61065673828125,0.43072509765625,0.27069091796875,-0.60687255859375,22.264612748029652,58.582206097791115,-77.04451202371608,0.7363689937503162,,,,3,0,3,3
1788939312.3871026,4573910662.0,-8.234375,2.21484375,5.0234375,0.029296875,0.044921875,0.025390625,14.1875,-8.9375,-42.0,14.1875,-8.9375,-42.0,-0.0005550926712008145,-0.4956921019667605,0.11346990724945544,0.8610537800095305,22.08997930895753,58.595419618448446,-167.42494517261284,0.61065673828125,0.43072509765625,0.27069091796875,-0.60687255859375,22.264612748029652,58.582206097791115,-77.04451202371608,0.7306929573405141,,,,3,0,2,3
1788939312.3890195,4573914615.0,-8.234375,2.29296875,5.0234375,0.029296875,0.044921875,0.025390625,14.1875,-8.9375,-42.0,14.1875,-8.9375,-42.0,-0.0006743651516172437,-0.49565188272810673,0.11356160248955165,0.8610647587839898,22.116780803662742,58.58601193615155,-167.39603458457015,0.61065673828125,0.43072509765625,0.27069091796875,-0.60687255859375,22.264612748029652,58.582206097791115,-77.04451202371608,0.7255202109360526,,,,3,0,2,3
1788939312.393114,4573918721.0,-8.2734375,2.3671875,4.87109375,0.037109375,0.06640625,0.013671875,14.1875,-8.9375,-42.0,14.1875,-8.9375,-42.0,-0.000822038560727024,-0.49567947582950905,0.11370714642669627,0.8610295386021817,22.16140219888932,58.583684173534095,-167.35128779797174,0.610595703125,0.4310302734375,0.27069091796875,-0.60675048828125,22.325840448695338,58.607729949698204,-77.00317800858882,0.0,,,,3,0,2,3
1788939312.3981047,4573922304.0,-8.234375,2.25390625,4.984375,0.0234375,0.07421875,-0.009765625,14.5625,-9.8125,-41.75,14.5625,-9.8125,-41.75,-0.0008731673114633994,-0.4956917933033262,0.1138085312261559,0.8610090021891315,22.186786194891155,58.58248030141507,-167.3301767641014,0.610595703125,0.4310302734375,0.27069091796875,-0.60675048828125,22.325840448695338,58.607729949698204,-77.00317800858882,0.0,,,,3,0,2,3
1788939312.4024007,4573926010.0,-8.2734375,2.33203125,4.90625,0.01171875,0.08203125,-0.02734375,14.5625,-9.8125,-41.75,14.5625,-9.8125,-41.75,-0.000929941861129325,-0.49574164833586387,0.113914240356556,0.860966259012143,22.21616427160534,58.58581669119163,-167.30485373298347,0.61041259765625,0.4312744140625,0.2708740234375,-0.60662841796875,22.350131927928654,58.6424377358132,-76.97629552105545,0.8915500316410991,,,,3,0,2,3
1788939312.4082303,4573929593.0,-8.27734375,2.33203125,4.87109375,0.00390625,0.09375,-0.046875,14.875,-8.8125,-35.4375,14.875,-8.8125,-35.4375,-0.0009594920597373875,-0.49582165588243543,0.11400626071095163,0.8609079726960911,22.242278139966047,58.59384874743523,-167.28382810368254,0.61041259765625,0.4312744140625,0.2708740234375,-0.60662841796875,22.350131927928654,58.6424377358132,-76.97629552105545,0.8933211646205842,,,,3,0,3,3
1788939312.410198,4573933670.0,-8.23828125,2.25390625,4.87109375,0.00390625,0.09375,-0.046875,14.875,-8.8125,-35.4375,14.875,-8.8125,-35.4375,-0.0009862875492216794,-0.49589724474544844,0.1140937535381428,0.860852812793407,22.26695420400339,58.601453866568626,-167.2641004152134,0.61041259765625,0.4312744140625,0.2708740234375,-0.60662841796875,22.350131927928654,58.6424377358132,-76.97629552105545,0.8953656762413167,,,,3,0,3,3
1788939312.4122043,4573937476.0,-8.31640625,2.17578125,4.83203125,-0.017578125,0.107421875,-0.0546875,14.875,-8.8125,-35.4375,14.875,-8.8125,-35.4375,-0.001026943973530028,-0.49599781939469306,0.11413859880695251,0.8607888758599115,22.286625267582448,58.61249331675778,-167.24452450689466,0.610107421875,0.4315185546875,0.27130126953125,-0.6065673828125,22.341268034729453,58.7085114695153,-76.98666150323693,0.927118849072744,,,,3,0,3,3
1788939312.4171963,4573941835.0,-8.43359375,2.17578125,4.6796875,-0.02734375,0.115234375,-0.060546875,11.625,-9.125,-35.5625,11.625,-9.125,-35.5625,-0.0010172373202532896,-0.49624450697737416,0.11422062238322053,0.8606358137710786,22.318525571520688,58.64274026298514,-167.21966289337647,0.610107421875,0.4315185546875,0.27130126953125,-0.6065673828125,22.341268034729453,58.7085114695153,-76.98666150323693,0.9284087928985233,,,,3,0,3,3
1788939312.4253645,4573945142.0,-8.46875,2.1015625,4.71484375,-0.03125,0.119140625,-0.068359375,11.625,-9.125,-35.5625,11.625,-9.125,-35.5625,-0.0009901105249287391,-0.4964375227611673,0.11427306664844095,0.8605175604917457,22.339303722850175,58.667072633779554,-167.2050347592795,0.60986328125,0.43170166015625,0.2718505859375,-0.6064453125,22.319567138798625,58.78076213683747,-76.99367812392777,0.8737621456738718,,,,3,0,3,3
1788939312.4234114,4573949371.0,-8.46875,1.984375,4.640625,-0.03125,0.119140625,-0.068359375,11.625,-9.125,-35.5625,11.625,-9.125,-35.5625,-0.000912580624980317,-0.4967378506018673,0.11430017458955617,0.8603407145223552,22.357672281192706,58.70663415278686,-167.19457617201343,0.60986328125,0.43170166015625,0.2718505859375,-0.6064453125,22.319567138798625,58.78076213683747,-76.99367812392777,0.8755753555165297,,,,3,0,3,3
1788939312.4293816,4573953278.0,-8.5078125,1.91015625,4.5625,-0.04296875,0.12109375,-0.078125,10.8125,-9.4375,-34.625,10.8125,-9.4375,-34.625,-0.0008069508439482028,-0.49702680485727657,0.11428388617667966,0.8601760851384197,22.36410877856516,58.74611574194486,-167.19475965767765,0.60986328125,0.43170166015625,0.2718505859375,-0.6064453125,22.319567138798625,58.78076213683747,-76.99367812392777,0.8784870369165069,,,,3,0,3,3
1788939312.431931,4573957384.0,-8.54296875,1.83203125,4.5625,-0.048828125,0.12109375,-0.07421875,10.8125,-9.4375,-34.625,10.8125,-9.4375,-34.625,-0.0006850178565337621,-0.4973421866970189,0.11423365546448942,0.8600005535121383,22.364243702884128,58.78986434363366,-167.19965573426,0.60955810546875,0.431884765625,0.27252197265625,-0.60638427734375,22.27944154892618,58.87174077608196,-77.02858311239522,0.0,,,,3,0,3,3
1788939312.4375036,4573960767.0,-8.51171875,1.71875,4.5234375,-0.052734375,0.11328125,-0.06640625,11.375,-8.5625,-34.8125,11.375,-8.5625,-34.8125,-0.0005872944355820966,-0.4976215657560613,0.11404628962708624,0.8598638707388667,22.33795597647269,58.830472987193104,-167.21742819232082,0.60955810546875,0.431884765625,0.27252197265625,-0.60638427734375,22.27944154892618,58.87174077608196,-77.02858311239522,0.0,,,,3,0,3,3
1788939312.4425,4573965350.0,-8.51171875,1.6796875,4.48828125,-0.052734375,0.10546875,-0.05859375,11.375,-8.5625,-34.8125,11.375,-8.5625,-34.8125,-0.0004676816362894155,-0.4979818989823236,0.11379713311543448,0.8596883284391814,22.303194953136884,58.882802942951194,-167.24003651743516,0.60931396484375,0.43194580078125,0.27313232421875,-0.60626220703125,22.228689861880994,58.9360049714081,-77.04356351480126,0.7644680406676592,,,,3,0,3,3
1788939312.4434996,4573968826.0,-8.5078125,1.640625,4.44921875,-0.052734375,0.10546875,-0.05859375,11.375,-8.5625,-34.8125,11.375,-8.5625,-34.8125,-0.0003767888431408837,-0.4982549338528186,0.11360666618856803,0.8595553526789362,22.276453941450026,58.922490964892276,-167.25745227134695,0.60931396484375,0.43194580078125,0.27313232421875,-0.60626220703125,22.228689861880994,58.9360049714081,-77.04356351480126,0.7536673589057098,,,,3,0,3,3
1788939312.4484885,4573972609.0,-8.5078125,1.6015625,4.41015625,-0.056640625,0.09765625,-0.04296875,10.8125,-7.9375,-34.1875,10.8125,-7.9375,-34.1875,-0.000319160649195871,-0.4985317805852421,0.11336933572275344,0.859426178098369,22.24431110001768,58.96251490555038,-167.2735034435554,0.60931396484375,0.43194580078125,0.27313232421875,-0.60626220703125,22.228689861880994,58.9360049714081,-77.04356351480126,0.7382847582820276,,,,3,0,3,3
1788939312.4537241,4573976515.0,-8.47265625,1.52734375,4.44921875,-0.05078125,0.08203125,-0.0390625,10.8125,-7.9375,-34.1875,10.8125,-7.9375,-34.1875,-0.00024398934136574604,-0.4987745176942886,0.11311403893873284,0.8593189949972002,22.204446520674665,58.998925005898215,-167.29732840825073,0.609130859375,0.4320068359375,0.273681640625,-0.60614013671875,22.18807261722321,58.99576517978399,-77.0546854044896,0.8930667429940505,,,,3,0,3,3
1788939312.4579902,4573981175.0,-8.47265625,1.44921875,4.41015625,-0.05078125,0.07421875,-0.015625,11.75,-10.0,-34.9375,11.75,-10.0,-34.9375,-0.0001462829502283276,-0.4990400373082257,0.1130192884278449,0.8591773159295856,22.19481030344065,59.036440390456434,-167.30634990519658,0.609130859375,0.4320068359375,0.273681640625,-0.60614013671875,22.18807261722321,58.99576517978399,-77.0546854044896,0.8936183149703364,,,,3,0,3,3
1788939312.4599974,4573985128.0,-8.5078125,1.44921875,4.44921875,-0.05078125,0.07421875,-0.015625,11.75,-10.0,-34.9375,11.75,-10.0,-34.9375,-5.687024956678316e-05,-0.4992617126153193,0.11293804315520656,0.8590592165214607,22.185531444866537,59.06799435519906,-167.31559188862772,0.609130859375,0.4320068359375,0.273681640625,-0.60614013671875,22.18807261722321,58.99576517978399,-77.0546854044896,0.8957917497496322,,,,3,0,3,3
1788939312.4629927,4573989034.0,-8.5078125,1.44921875,4.44921875,-0.0546875,0.064453125,0.01171875,11.75,-10.0,-34.9375,11.75,-10.0,-34.9375,-1.5226429624743224e-05,-0.4994574666742659,0.11287929667240863,0.8589531437361546,22.183690267953406,59.09473197090778,-167.3153758407073,0.609130859375,0.43206787109375,0.27410888671875,-0.60595703125,22.176802653311686,59.04432565950522,-77.04170145983808,0.0,,,,3,0,3,3
1788939312.4635298,4573993017.0,-8.51171875,1.52734375,4.44921875,-0.048828125,0.056640625,0.025390625,11.0625,-10.25,-39.5,11.0625,-10.25,-39.5,1.4766310670090994e-06,-0.499651756116437,0.11279883419123517,0.8588507120639061,22.180121399955027,59.12097715761164,-167.31296400038644,0.609130859375,0.43206787109375,0.27410888671875,-0.60595703125,22.176802653311686,59.04432565950522,-77.04170145983808,0.0,,,,3,0,3,3
1788939312.472384,4573996523.0,-8.54296875,1.6015625,4.41015625,-0.0390625,0.044921875,0.041015625,11.0625,-10.25,-39.5,11.0625,-10.25,-39.5,-1.6781029491541456e-05,-0.49980797125034304,0.11278421652226357,0.8587617318537618,22.19022575713562,59.140549199315075,-167.29963801908315,0.60919189453125,0.43212890625,0.27435302734375,-0.60565185546875,22.19237126577549,59.06005031742495,-76.97690692116868,1.2124694699062866,,,,3,0,3,3
1788939312.4784088,4574000506.0,-8.5390625,1.71875,4.44921875,-0.041015625,0.025390625,0.0546875,15.125,-8.1875,-40.125,15.125,-8.1875,-40.125,-0.00013844496741742182,-0.4999316357083036,0.11260122316177451,0.8587137503228206,22.176128482415926,59.15585902074134,-167.28768885063906,0.60919189453125,0.43212890625,0.27435302734375,-0.60565185546875,22.19237126577549,59.06005031742495,-76.97690692116868,1.1960840098849386,,,,3,0,3,3
1788939312.4794588,4574003882.0,-8.54296875,1.79296875,4.48828125,-0.041015625,0.025390625,0.0546875,15.125,-8.1875,-40.125,15.125,-8.1875,-40.125,-0.0002524973807257629,-0.5000360086503802,0.1124445268553181,0.8586734854869769,22.164974379849664,59.16853175747919,-167.27571890757318,0.60919189453125,0.43212890625,0.27435302734375,-0.60565185546875,22.19237126577549,59.06005031742495,-76.97690692116868,1.1818276515986499,,,,3,0,3,3
1788939312.4843795,4574007789.0,-8.5078125,1.91015625,4.48828125,-0.03515625,0.0234375,0.052734375,15.125,-8.1875,-40.125,15.125,-8.1875,-40.125,-0.00040690407350884233,-0.5001632870619984,0.11228256228667369,0.8586204906189643,22.158608330462766,59.183177205711345,-167.25507050506707,0.60943603515625,0.43218994140625,0.27447509765625,-0.60540771484375,22.230486253993174,59.07628557046064,-76.92369862064831,0.0,,,,3,0,3,3
1788939312.4881492,4574012348.0,-8.51171875,1.94921875,4.48828125,-0.033203125,0.009765625,0.0546875,14.75,-9.1875,-40.5625,14.75,-9.1875,-40.5625,-0.000588877428594284,-0.5003223216180632,0.11223452216161889,0.8585340061693763,22.17945072123229,59.19948221710037,-167.21446119579295,0.60943603515625,0.43218994140625,0.27447509765625,-0.60540771484375,22.230486253993174,59.07628557046064,-76.92369862064831,0.0,,,,3,0,3,3
1788939312.4931655,4574015854.0,-8.47265625,2.0234375,4.5625,-0.03515625,0.0,0.052734375,14.75,-9.1875,-40.5625,14.75,-9.1875,-40.5625,-0.0007940316547202648,-0.500412205503214,0.11223487520507638,0.8584814074194278,22.207186703577044,59.205708977822475,-167.16931391207407,0.609619140625,0.43218994140625,0.27447509765625,-0.60516357421875,22.26064277083113,59.063966206718675,-76.85760808945571,0.8671539180448109,,,,3,0,3,3
1788939312.497102,4574020214.0,-8.390625,2.1015625,4.5234375,-0.044921875,-0.001953125,0.0546875,14.6875,-9.75,-41.0,14.6875,-9.75,-41.0,-0.0010377313004483531,-0.5004459217888564,0.11237291752635387,0.858443434295624,22.26161047897329,59.20178018924393,-167.10606904063923,0.609619140625,0.43218994140625,0.27447509765625,-0.60516357421875,22.26064277083113,59.063966206718675,-76.85760808945571,0.8557210090247948,,,,3,0,2,3
1788939312.4990768,4574023514.0,-8.3515625,2.1015625,4.6015625,-0.044921875,-0.001953125,0.0546875,14.6875,-9.75,-41.0,14.6875,-9.75,-41.0,-0.0012394898132202397,-0.5004201890534126,0.11249228523586695,0.8584425337873015,22.30379952020328,59.19162972587746,-167.05716114637974,0.609619140625,0.43218994140625,0.27447509765625,-0.60516357421875,22.26064277083113,59.063966206718675,-76.85760808945571,0.8466661440191676,,,,3,0,2,3
1788939312.5046153,4574028296.0,-8.31640625,2.1015625,4.640625,-0.048828125,-0.005859375,0.041015625,14.6875,-9.75,-41.0,14.6875,-9.75,-41.0,-0.0015082980897104825,-0.5003295452248115,0.11262912137006932,0.8584769957496893,22.351619568959798,59.17127217394935,-166.99867090302007,0.60986328125,0.43212890625,0.2745361328125,-0.60498046875,22.27585393504983,59.061329824165576,-76.81813216703469,0.0,,,,3,0,2,3
1788939312.505852,4574031879.0,-8.3515625,2.1015625,4.6015625,-0.052734375,-0.005859375,0.044921875,15.875,-7.8125,-34.8125,15.875,-7.8125,-34.8125,-0.0017874440990990074,-0.5003170111610195,0.11252552254073504,0.8584973501202152,22.359527690798256,59.16415526779773,-166.95864525469304,0.60986328125,0.43212890625,0.2745361328125,-0.60498046875,22.27585393504983,59.061329824165576,-76.81813216703469,0.0,,,,3,0,3,3
1788939312.512818,4574035962.0,-8.3515625,2.1015625,4.71484375,-0.046875,-0.013671875,0.03125,15.875,-7.8125,-34.8125,15.875,-7.8125,-34.8125,-0.002010900605088571,-0.5002071822618066,0.11240932878353713,0.8585760734465495,22.352238049301093,59.14631532609884,-166.93769164337613,0.610107421875,0.4320068359375,0.2745361328125,-0.60479736328125,22.28370407565403,59.042182888447066,-76.77361843633955,0.5812665846614746,,,,3,0,3,3
1788939312.5138786,4574039015.0,-8.35546875,2.1015625,4.640625,-0.046875,-0.013671875,0.03125,15.875,-7.8125,-34.8125,15.875,-7.8125,-34.8125,-0.002214882682562815,-0.5001630449934082,0.11231819876654871,0.8586132103243359,22.352504110901076,59.136921255203255,-166.9127479205181,0.610107421875,0.4320068359375,0.2745361328125,-0.60479736328125,22.28370407565403,59.042182888447066,-76.77361843633955,0.5471920980057489,,,,3,0,3,3
1788939312.5188797,4574043798.0,-8.3515625,2.140625,4.640625,-0.056640625,-0.015625,0.0234375,11.3125,-8.1875,-35.5,11.3125,-8.1875,-35.5,-0.0024652856481924904,-0.5000813775018301,0.11241996645806544,0.8586467780083451,22.39215116279057,59.118673717219544,-166.86097359652368,0.610107421875,0.4320068359375,0.2745361328125,-0.60479736328125,22.28370407565403,59.042182888447066,-76.77361843633955,0.5277775567144372,,,,3,0,3,3
1788939312.523887,4574047704.0,-8.35546875,2.140625,4.6015625,-0.05859375,-0.017578125,0.009765625,11.3125,-8.1875,-35.5,11.3125,-8.1875,-35.5,-0.0026463957779987333,-0.5000434140145256,0.11248856243045356,0.8586593643654123,22.42135128952524,59.108216531244274,-166.8225178981068,0.6103515625,0.43182373046875,0.274658203125,-0.60467529296875,22.266407782158595,59.037299496183934,-76.75974879189424,0.0,,,,3,0,3,3
1788939312.5273614,4574051487.0,-8.35546875,2.0625,4.640625,-0.056640625,-0.021484375,-0.005859375,11.0625,-7.5625,-34.8125,11.0625,-7.5625,-34.8125,-0.002862244657575747,-0.49998212499240774,0.11236750145905375,0.8587102112234639,22.41578273252069,59.09680478899913,-166.79992629573792,0.6103515625,0.43182373046875,0.274658203125,-0.60467529296875,22.266407782158595,59.037299496183934,-76.75974879189424,0.0,,,,3,0,3,3
1788939312.5316122,4574055193.0,-8.31640625,2.0234375,4.71484375,-0.052734375,-0.025390625,-0.01171875,11.0625,-7.5625,-34.8125,11.0625,-7.5625,-34.8125,-0.002981732642554527,-0.4998590817308409,0.11221939735914366,0.8588008002662779,22.390609413732772,59.080440291668985,-166.80289496525188,0.6104736328125,0.43157958984375,0.27471923828125,-0.6046142578125,22.227464429760463,59.01432574356429,-76.75496038258363,0.9234773574908501,,,,3,0,3,3
1788939312.5336888,4574059546.0,-8.3125,2.0234375,4.6796875,-0.052734375,-0.025390625,-0.01171875,11.0625,-7.5625,-34.8125,11.0625,-7.5625,-34.8125,-0.0031498064488984555,-0.499729592639056,0.11204618343543299,0.8588981695973574,22.365142823661404,59.06241164851456,-166.79997685270158,0.6104736328125,0.43157958984375,0.27471923828125,-0.6046142578125,22.227464429760463,59.01432574356429,-76.75496038258363,0.9002700721030917,,,,3,0,3,3
1788939312.5267878,4574063429.0,-8.31640625,2.0625,4.640625,-0.048828125,-0.02734375,-0.01953125,11.75,-8.5625,-34.8125,11.75,-8.5625,-34.8125,-0.003209964165352763,-0.49965148524679787,0.11212936937175016,0.858932531660677,22.381764697196186,59.049725722135626,-166.7855787753666,0.6104736328125,0.43157958984375,0.27471923828125,-0.6046142578125,22.227464429760463,59.01432574356429,-76.75496038258363,0.901746401164024,,,,3,0,3,3
1788939312.535642,4574067235.0,-8.3125,2.0234375,4.6796875,-0.048828125,-0.037109375,-0.01953125,11.75,-8.5625,-34.8125,11.75,-8.5625,-34.8125,-0.003257174727368945,-0.49952959075916076,0.11220345853030289,0.8589935754489781,22.392136616907017,59.031962960038946,-166.77786845567184,0.61053466796875,0.43133544921875,0.27484130859375,-0.60467529296875,22.17143405467565,59.00765140942219,-76.79000089288537,0.8874245137869304,,,,3,0,3,3
1788939312.5336742,4574071018.0,-8.27734375,1.984375,4.6796875,-0.044921875,-0.037109375,-0.029296875,11.3125,-8.1875,-35.5,11.3125,-8.1875,-35.5,-0.003322348486706247,-0.4993643165798704,0.11217062923131968,0.8590937034253607,22.380610016675654,59.00988444791189,-166.78161875813151,0.61053466796875,0.43133544921875,0.27484130859375,-0.60467529296875,22.17143405467565,59.00765140942219,-76.79000089288537,0.8806764951521764,,,,3,0,3,3
1788939312.535642,4574074971.0,-8.27734375,1.94921875,4.6796875,-0.044921875,-0.037109375,-0.029296875,11.3125,-8.1875,-35.5,11.3125,-8.1875,-35.5,-0.0033702656121410556,-0.49918370802026024,0.1120942495718258,0.8592084416308865,22.35783342333727,58.986968497643446,-166.79441911290616,0.61053466796875,0.43133544921875,0.27484130859375,-0.60467529296875,22.17143405467565,59.00765140942219,-76.79000089288537,0.872459194458719,,,,3,0,3,3
1788939312.5528586,4574078878.0,-8.3125,1.87109375,4.71484375,-0.03515625,-0.041015625,-0.033203125,11.3125,-8.1875,-35.5,11.3125,-8.1875,-35.5,-0.0033227156347626196,-0.4990216924366367,0.11191400312657153,0.8593262278917542,22.30662358876081,58.97040352492898,-166.83480246076525,0.610595703125,0.4310302734375,0.27490234375,-0.60479736328125,22.104681195335598,58.99032573883525,-76.83783349577256,0.9324359492465547,,,,3,0,3,3
1788939312.558783,4574082660.0,-8.3125,1.83203125,4.75390625,-0.029296875,-0.041015625,-0.03515625,10.875,-7.25,-35.8125,10.875,-7.25,-35.8125,-0.0032961624968886553,-0.4989291890513404,0.11167169311246862,0.8594115618158511,22.250622864739096,58.96303624748448,-166.87276503291903,0.610595703125,0.4310302734375,0.27490234375,-0.60479736328125,22.104681195335598,58.99032573883525,-76.83783349577256,0.9178986559846702,,,,3,0,3,3
1788939312.5627863,4574086567.0,-8.3515625,1.83203125,4.79296875,-0.025390625,-0.041015625,-0.033203125,10.875,-7.25,-35.8125,10.875,-7.25,-35.8125,-0.0032662723572326243,-0.498828888920491,0.11143275889730254,0.8595009082530236,22.194401380567257,58.95470006167512,-166.9115357198133,0.61065673828125,0.4307861328125,0.27496337890625,-0.60491943359375,22.050068658468422,58.98120309656812,-76.88478429476609,0.4923649779421323,,,,3,0,3,3
1788939312.5688796,4574090150.0,-8.3515625,1.79296875,4.79296875,-0.017578125,-0.0390625,-0.0234375,11.3125,-7.4375,-39.5625,11.3125,-7.4375,-39.5625,-0.0032493365144536557,-0.4987529224293316,0.11122491077006194,0.8595719768609309,22.14724790040574,58.948637887764555,-166.94271738669462,0.61065673828125,0.4307861328125,0.27496337890625,-0.60491943359375,22.050068658468422,58.98120309656812,-76.88478429476609,0.4692796750331068,,,,3,0,3,3
1788939312.5708473,4574094703.0,-8.3515625,1.79296875,4.79296875,-0.017578125,-0.0390625,-0.0234375,11.3125,-7.4375,-39.5625,11.3125,-7.4375,-39.5625,-0.0032283931775285613,-0.4986564757456534,0.11096071161555303,0.8596621529136814,22.0874040905731,58.94091788152186,-166.9822098171502,0.61065673828125,0.4307861328125,0.27496337890625,-0.60491943359375,22.050068658468422,58.98120309656812,-76.88478429476609,0.4404513986165316,,,,3,0,3,3
1788939312.5727482,4574098709.0,-8.3515625,1.79296875,4.79296875,-0.00390625,-0.03515625,-0.0234375,11.3125,-7.4375,-39.5625,11.3125,-7.4375,-39.5625,-0.0031978461901719848,-0.4985785468347376,0.11075169140674206,0.8597344178677804,22.038531229193115,58.93494255270875,-167.0161577446251,0.61065673828125,0.4305419921875,0.27496337890625,-0.6051025390625,21.991438093499045,58.965896138838225,-76.94176751967623,0.17269557096453378,,,,3,0,3,3
1788939312.578747,4574102192.0,-8.39453125,1.7578125,4.83203125,0.0,-0.037109375,-0.02734375,15.875,-7.9375,-41.3125,15.875,-7.9375,-41.3125,-0.003147342987267154,-0.49851172163954804,0.11056991590759338,0.8597967500033261,21.99365548691583,58.93045406153279,-167.0500576522077,0.61065673828125,0.4305419921875,0.27496337890625,-0.6051025390625,21.991438093499045,58.965896138838225,-76.94176751967623,0.13012708051823435,,,,3,0,2,3
1788939312.581254,4574106675.0,-8.39453125,1.7578125,4.83203125,0.0078125,-0.033203125,-0.017578125,15.875,-7.9375,-41.3125,15.875,-7.9375,-41.3125,-0.003093802646933694,-0.49843094102702196,0.1103617965202549,0.8598705130895703,21.942432184481127,58.924653613817135,-167.08836754113733,0.610595703125,0.430419921875,0.27490234375,-0.605224609375,21.959827682603265,58.94914677647351,-76.97137430679771,0.9222906220307553,,,,3,0,2,3
1788939312.5935464,4574110257.0,-8.43359375,1.83203125,4.79296875,0.01953125,-0.025390625,-0.013671875,14.0,-8.75,-41.0,14.0,-8.75,-41.0,-0.0030486027495514366,-0.49836830554032796,0.1102216047089755,0.8599249594642058,21.906426014060003,58.91992336626885,-167.11646362645521,0.610595703125,0.430419921875,0.27490234375,-0.605224609375,21.959827682603265,58.94914677647351,-76.97137430679771,0.9180590015034666,,,,3,0,2,3
1788939312.595514,4574114334.0,-8.43359375,1.87109375,4.75390625,0.01953125,-0.025390625,-0.013671875,14.0,-8.75,-41.0,14.0,-8.75,-41.0,-0.0030171609335488524,-0.4983148059718809,0.11005376859200443,0.8599775688399118,21.867160626814314,58.916412421589605,-167.14429917968715,0.610595703125,0.430419921875,0.27490234375,-0.605224609375,21.959827682603265,58.94914677647351,-76.97137430679771,0.9119174171645891,,,,3,0,2,3
1788939312.5920393,4574117940.0,-8.46875,1.79296875,4.75390625,0.033203125,-0.015625,-0.009765625,14.0,-8.75,-41.0,14.0,-8.75,-41.0,-0.002952115009879059,-0.49830070161644735,0.10992269658475999,0.8600027305544207,21.834279693551366,58.9181779144276,-167.17157120403184,0.610595703125,0.430419921875,0.2747802734375,-0.6053466796875,21.96256378424438,58.94426083638422,-76.99519414287144,0.0,,,,3,0,2,3
1788939312.6005118,4574121323.0,-8.43359375,1.79296875,4.75390625,0.029296875,-0.0078125,-0.015625,14.4375,-10.625,-40.8125,14.4375,-10.625,-40.8125,-0.0028174072015774176,-0.49826318311531104,0.11009423621037025,0.8600029777400273,21.85085630391045,58.91422302853949,-167.18091787311798,0.610595703125,0.430419921875,0.2747802734375,-0.6053466796875,21.96256378424438,58.94426083638422,-76.99519414287144,0.0,,,,3,0,2,3
1788939312.6024482,4574125706.0,-8.5078125,1.79296875,4.71484375,0.033203125,-0.0078125,-0.013671875,14.4375,-10.625,-40.8125,14.4375,-10.625,-40.8125,-0.0026427183467429543,-0.4982844904557251,0.11030417446058557,0.8599642851349042,21.8748292824127,58.91815642346542,-167.18930801949764,0.6104736328125,0.43048095703125,0.274658203125,-0.60546875,21.966524476007162,58.940136794035794,-77.01448389272768,0.0,,,,3,0,2,3
1788939312.6040611,4574129835.0,-8.47265625,1.79296875,4.6796875,0.033203125,-0.0078125,-0.013671875,14.4375,-10.625,-40.8125,14.4375,-10.625,-40.8125,-0.002485381396961953,-0.49831363558140673,0.11049911425084831,0.8599228391098417,21.898248240584504,58.922880377584406,-167.1955054823303,0.6104736328125,0.43048095703125,0.274658203125,-0.60546875,21.966524476007162,58.940136794035794,-77.01448389272768,0.17260682072810604,,,,3,0,2,3
1788939312.6100016,4574133742.0,-8.46875,1.7578125,4.71484375,0.0390625,-0.0078125,-0.00390625,16.5,-6.375,-34.5625,16.5,-6.375,-34.5625,-0.0024300924074947836,-0.49832557141243267,0.1103707978109767,0.8599325592846988,21.86870661755613,58.92766000472184,-167.2187803404272,0.6104736328125,0.43048095703125,0.274658203125,-0.60546875,21.966524476007162,58.940136794035794,-77.01448389272768,0.15444484331589292,,,,3,0,3,3
1788939312.6130123,4574137648.0,-8.46875,1.71875,4.75390625,0.046875,-0.00390625,0.001953125,16.5,-6.375,-34.5625,16.5,-6.375,-34.5625,-0.002373468420082446,-0.4983344987279136,0.11026245831755885,0.8599414423732737,21.84265820314867,58.93179223051828,-167.2403744599342,0.61041259765625,0.4305419921875,0.2745361328125,-0.60552978515625,21.979352976061772,58.93390863703015,-77.01777215719105,0.4430149640526584,,,,3,0,3,3
1788939312.6170406,4574141431.0,-8.4296875,1.71875,4.6796875,0.05859375,0.0,0.0078125,12.0625,-8.0625,-34.75,12.0625,-8.0625,-34.75,-0.0022373953035217074,-0.49837931942302394,0.11020781310110245,0.859922837215742,21.821283768913485,58.94165201407401,-167.26840079086097,0.61041259765625,0.4305419921875,0.2745361328125,-0.60552978515625,21.979352976061772,58.93390863703015,-77.01777215719105,0.4551920228067312,,,,3,0,3,3
1788939312.6224444,4574144837.0,-8.390625,1.7578125,4.640625,0.072265625,0.0,0.0078125,12.0625,-8.0625,-34.75,12.0625,-8.0625,-34.75,-0.002107911583600571,-0.49844344465356305,0.11019113818417849,0.8598881335710601,21.809229961616207,58.95323730860922,-167.2897155009496,0.61029052734375,0.43072509765625,0.27435302734375,-0.6055908203125,22.015678639964595,58.93211105310716,-77.01161728697195,0.6470849716293219,,,,3,0,3,3
1788939312.623446,4574149490.0,-8.39453125,1.6796875,4.640625,0.072265625,0.0,0.0078125,12.0625,-8.0625,-34.75,12.0625,-8.0625,-34.75,-0.001924817450091537,-0.4985079288872487,0.11015545927978264,0.8598557522661516,21.788014415155686,58.966471448045816,-167.3230745135761,0.61029052734375,0.43072509765625,0.27435302734375,-0.6055908203125,22.015678639964595,58.93211105310716,-77.01161728697195,0.6617859302965605,,,,3,0,3,3
1788939312.628018,4574153273.0,-8.3515625,1.71875,4.71484375,0.0703125,-0.005859375,0.01171875,12.0625,-8.0625,-34.75,12.0625,-8.0625,-34.75,-0.0017939091248191962,-0.49847085799068,0.11012747873566521,0.8598811104166744,21.766585082281644,58.96541235433613,-167.35321031187837,0.61029052734375,0.43072509765625,0.27435302734375,-0.6055908203125,22.015678639964595,58.93211105310716,-77.01161728697195,0.6728562009042868,,,,3,0,3,3
1788939312.6317239,4574157079.0,-8.3515625,1.7578125,4.79296875,0.083984375,-0.00390625,0.01171875,12.0625,-8.0625,-34.75,12.0625,-8.0625,-34.75,-0.0016819652664616916,-0.49838125671731554,0.11016595250539324,0.8599283440230884,21.756278014912198,58.95624663013932,-167.3764100550521,0.61016845703125,0.43096923828125,0.27410888671875,-0.605712890625,22.065434636987977,58.93610838504182,-77.0165740531925,0.0,,,,3,0,3,3
1788939312.6203227,4574160862.0,-8.390625,1.87109375,4.6796875,0.08984375,0.0,0.017578125,11.5625,-9.6875,-36.0,11.5625,-9.6875,-36.0,-0.0015875231612316179,-0.49837147218790256,0.11050788002300578,0.8598903208737125,21.81178167739602,58.95235771026678,-167.35780709112515,0.61016845703125,0.43096923828125,0.27410888671875,-0.605712890625,22.065434636987977,58.93610838504182,-77.0165740531925,0.0,,,,3,0,3,3
1788939312.622464,4574164615.0,-8.31640625,1.91015625,4.640625,0.08984375,0.0,0.017578125,11.5625,-9.6875,-36.0,11.5625,-9.6875,-36.0,-0.0015098135863281428,-0.4983587932090437,0.11085040196607236,0.8598537213259707,21.868915580916493,58.94767619675173,-167.33623171155682,0.61016845703125,0.43096923828125,0.27410888671875,-0.605712890625,22.065434636987977,58.93610838504182,-77.0165740531925,0.0,,,,3,0,3,3
1788939312.6310287,4574168721.0,-8.39453125,1.91015625,4.6015625,0.09375,-0.001953125,0.01953125,11.5625,-9.6875,-36.0,11.5625,-9.6875,-36.0,-0.001419495580212184,-0.4983733779578457,0.11122120945880534,0.8597975364826911,21.932100738827597,58.946348885733165,-167.31198177455252,0.6099853515625,0.4312744140625,0.2738037109375,-0.60577392578125,22.130102052347254,58.930518701912895,-76.99511216484177,0.4437745777718056,,,,3,0,3,3
1788939312.6353111,4574172504.0,-8.35546875,1.91015625,4.640625,0.095703125,-0.009765625,0.0234375,12.1875,-9.875,-34.1875,12.1875,-9.875,-34.1875,-0.0013403133349222975,-0.4983505429760926,0.1115797167973039,0.8597644483665461,21.99144933338079,58.940174529019686,-167.28970165042722,0.6099853515625,0.4312744140625,0.2738037109375,-0.60577392578125,22.130102052347254,58.930518701912895,-76.99511216484177,0.48985240344237835,,,,3,0,3,3
1788939312.6527297,4574176010.0,-8.35546875,1.91015625,4.6796875,0.095703125,-0.013671875,0.015625,12.1875,-9.875,-34.1875,12.1875,-9.875,-34.1875,-0.0012526931545532366,-0.49831424951821063,0.11190716503852631,0.8597430580702604,22.043000911387026,58.932957635765106,-167.27333551579017,0.60986328125,0.43157958984375,0.2734375,-0.6058349609375,22.204992705016178,58.920405470843335,-76.96964827912278,0.6154157809666273,,,,3,0,3,3
1788939312.6578188,4574179993.0,-8.3515625,1.91015625,4.71484375,0.087890625,-0.0234375,0.013671875,10.6875,-7.125,-34.8125,10.6875,-7.125,-34.8125,-0.0012334975245598253,-0.4982571211354552,0.11189555744715055,0.8597777061224934,22.034801848423296,58.92636540788504,-167.28232417746497,0.60986328125,0.43157958984375,0.2734375,-0.6058349609375,22.204992705016178,58.920405470843335,-76.96964827912278,0.6171647554742585,,,,3,0,3,3
1788939312.6578188,4574184846.0,-8.3515625,1.91015625,4.75390625,0.087890625,-0.0234375,0.013671875,10.6875,-7.125,-34.8125,10.6875,-7.125,-34.8125,-0.0012051709061510483,-0.49816494544964385,0.11189383507979936,0.8598313813529808,22.025126356314008,58.9154128867355,-167.29449278505734,0.60986328125,0.43157958984375,0.2734375,-0.6058349609375,22.204992705016178,58.920405470843335,-76.96964827912278,0.621154267241097,,,,3,0,3,3
1788939312.6628318,4574188453.0,-8.3125,1.91015625,4.71484375,0.083984375,-0.017578125,0.017578125,10.6875,-7.125,-34.8125,10.6875,-7.125,-34.8125,-0.001200809474425315,-0.49811184974857325,0.11188695302104769,0.859863043129734,22.019647579271087,58.90889139527165,-167.2999067155849,0.6097412109375,0.43182373046875,0.2730712890625,-0.60595703125,22.264376460763064,58.907965660640855,-76.96295639635527,0.44601249100382984,,,,3,0,3,3
1788939312.6687412,4574192235.0,-8.3125,1.87109375,4.71484375,0.091796875,-0.015625,0.017578125,10.625,-8.375,-39.6875,10.625,-8.375,-39.6875,-0.0011720996160856096,-0.4980468223869174,0.11189602390465588,0.8598995689771644,22.013916143570626,58.90123178822143,-167.30900000877668,0.6097412109375,0.43182373046875,0.2730712890625,-0.60595703125,22.264376460763064,58.907965660640855,-76.96295639635527,0.45214839081046143,,,,3,0,3,3
1788939312.6710386,4574196318.0,-8.27734375,1.87109375,4.75390625,0.09375,-0.017578125,0.017578125,10.625,-8.375,-39.6875,10.625,-8.375,-39.6875,-0.00113572136031052,-0.49794304465977796,0.11193761355091546,0.8599543040676453,22.01096113858246,58.88837542161784,-167.31882638415254,0.609619140625,0.43206787109375,0.272705078125,-0.6060791015625,22.323753909340866,58.89556338110545,-76.95634161771848,0.15966094069028405,,,,3,0,3,3
1788939312.6690855,4574199571.0,-8.3125,1.87109375,4.75390625,0.09375,-0.017578125,0.017578125,10.625,-8.375,-39.6875,10.625,-8.375,-39.6875,-0.0011053848223161883,-0.4978697211927303,0.1119602403829381,0.8599938508020055,22.007102849078294,58.87950677391485,-167.32735578378671,0.609619140625,0.43206787109375,0.272705078125,-0.6060791015625,22.323753909340866,58.89556338110545,-76.95634161771848,0.17995075208357847,,,,3,0,3,3
1788939312.6710386,4574204054.0,-8.35546875,1.94921875,4.71484375,0.103515625,-0.017578125,0.01953125,14.3125,-7.3125,-40.8125,14.3125,-7.3125,-40.8125,-0.0010780571363585552,-0.49783927921612653,0.11197542312839734,0.8600095316201994,22.00510862919372,58.87610800499621,-167.33301480788793,0.609619140625,0.43206787109375,0.272705078125,-0.6060791015625,22.323753909340866,58.89556338110545,-76.95634161771848,0.19382325774616121,,,,3,0,3,3
1788939312.6710386,4574207960.0,-8.31640625,1.94921875,4.79296875,0.1015625,-0.017578125,0.02734375,14.3125,-7.3125,-40.8125,14.3125,-7.3125,-40.8125,-0.0010669396124240638,-0.4977839637370934,0.11200429758808017,0.860037804057387,22.005676226452582,58.86895152921873,-167.33598506896897,0.6094970703125,0.43231201171875,0.27227783203125,-0.606201171875,22.387903436945063,58.87495069600539,-76.94394589568094,0.5338302421760723,,,,3,0,3,3
1788939312.688716,4574211743.0,-8.35546875,1.984375,4.79296875,0.1015625,-0.009765625,0.021484375,14.0,-7.3125,-40.875,14.0,-7.3125,-40.875,-0.0010569252016387066,-0.49774845919288563,0.11202703878036731,0.8600554033679043,22.006555978063165,58.86436867816485,-167.3379740251693,0.6094970703125,0.43231201171875,0.27227783203125,-0.606201171875,22.387903436945063,58.87495069600539,-76.94394589568094,0.5369431420217025,,,,3,0,3,3
1788939312.6927602,4574215550.0,-8.35546875,2.0234375,4.75390625,0.109375,-0.00390625,0.015625,14.0,-7.3125,-40.875,14.0,-7.3125,-40.875,-0.00104396350352865,-0.49773255533119765,0.1120573981403005,0.8600606682238792,22.00996317211418,58.862232925783665,-167.33827155762893,0.609375,0.4326171875,0.27191162109375,-0.60626220703125,22.4627486145749,58.864977548554734,-76.91882543123243,0.6191222133251713,,,,3,0,3,3
1788939312.6938925,4574219579.0,-8.31640625,2.0234375,4.71484375,0.109375,-0.00390625,0.015625,14.0,-7.3125,-40.875,14.0,-7.3125,-40.875,-0.001034275320231625,-0.49772076739800836,0.11208902157718033,0.8600633809302487,22.014234306751668,58.86051879783019,-167.33752600343934,0.609375,0.4326171875,0.27191162109375,-0.60626220703125,22.4627486145749,58.864977548554734,-76.91882543123243,0.6214656313392476,,,,3,0,3,3
1788939312.6997583,4574223285.0,-8.31640625,2.0234375,4.75390625,0.09375,0.0,0.017578125,14.5625,-8.875,-41.625,14.5625,-8.875,-41.625,-0.0010735949311514155,-0.4976580096929915,0.11215797119849118,0.8600906593371263,22.02714404780006,58.85057471806852,-167.32734364587438,0.609375,0.4326171875,0.27191162109375,-0.60626220703125,22.4627486145749,58.864977548554734,-76.91882543123243,0.6215918967046897,,,,3,0,2,3
1788939312.70208,4574227192.0,-8.31640625,1.984375,4.79296875,0.08984375,0.005859375,0.015625,14.5625,-8.875,-41.625,14.5625,-8.875,-41.625,-0.0010823259574968443,-0.49759523496075236,0.11220837972339937,0.8601203928722564,22.03335838763015,58.84166357354527,-167.32485013850774,0.60919189453125,0.4329833984375,0.2716064453125,-0.60638427734375,22.536124960934966,58.87366074641996,-76.91476900584637,0.0,,,,3,0,2,3
1788939312.7067885,4574231175.0,-8.39453125,2.0625,4.83203125,0.078125,0.005859375,0.021484375,15.5625,-8.75,-34.9375,15.5625,-8.75,-34.9375,-0.0011177170380694949,-0.497494769359904,0.11248490988302286,0.8601423429972315,22.083118586085654,58.82400052375148,-167.29584637504828,0.60919189453125,0.4329833984375,0.2716064453125,-0.60638427734375,22.536124960934966,58.87366074641996,-76.91476900584637,0.0,,,,3,0,3,3
1788939312.7067885,4574235657.0,-8.43359375,2.0625,4.71484375,0.060546875,0.013671875,0.01953125,15.5625,-8.75,-34.9375,15.5625,-8.75,-34.9375,-0.0011952885795554864,-0.49750985443171886,0.11281701713620104,0.8600900166104892,22.155888071456467,58.819091049479255,-167.24467379941578,0.60906982421875,0.4332275390625,0.2713623046875,-0.60638427734375,22.592754618924403,58.86616644653186,-76.88441723339159,0.5047320180388737,,,,3,0,3,3
1788939312.7067885,4574239234.0,-8.43359375,2.0625,4.71484375,0.060546875,0.013671875,0.01953125,15.5625,-8.75,-34.9375,15.5625,-8.75,-34.9375,-0.001261153480945333,-0.49752129094506814,0.1130801767321834,0.860048747559386,22.21395344864036,58.81500590944681,-167.20335555886783,0.60906982421875,0.4332275390625,0.2713623046875,-0.60638427734375,22.592754618924403,58.86616644653186,-76.88441723339159,0.509825717378528,,,,3,0,3,3
1788939312.7183163,4574243017.0,-8.46875,2.0625,4.71484375,0.05859375,0.021484375,0.013671875,12.0,-7.125,-34.625,12.0,-7.125,-34.625,-0.0013323141195775328,-0.497585270916677,0.11303322870122391,0.8600177976735369,22.21667439306747,58.82200896140432,-167.1905043998132,0.60906982421875,0.4332275390625,0.2713623046875,-0.60638427734375,22.592754618924403,58.86616644653186,-76.88441723339159,0.4981407596580562,,,,3,0,3,3
1788939312.7227108,4574246923.0,-8.47265625,2.0234375,4.71484375,0.05859375,0.01953125,0.009765625,12.0,-7.125,-34.625,12.0,-7.125,-34.625,-0.0013744921198458368,-0.497649776241744,0.11296790062767427,0.8599889908630985,22.21294992373497,58.83008076250107,-167.184969520347,0.60894775390625,0.43353271484375,0.27117919921875,-0.60638427734375,22.656758465653716,58.87512742779961,-76.85907319031271,0.027894315936347065,,,,3,0,3,3
1788939312.7278109,4574250706.0,-8.46875,2.0234375,4.640625,0.0546875,0.02734375,0.001953125,11.8125,-9.0,-34.5,11.8125,-9.0,-34.5,-0.0013353530462116318,-0.4977253610652095,0.11322441618363954,0.8599115729914457,22.263561347280138,58.836844782978055,-167.1591575924512,0.60894775390625,0.43353271484375,0.27117919921875,-0.60638427734375,22.656758465653716,58.87512742779961,-76.85907319031271,0.11596881101156535,,,,3,0,3,3
1788939312.7287996,4574254459.0,-8.46875,1.984375,4.640625,0.0546875,0.02734375,0.001953125,11.8125,-9.0,-34.5,11.8125,-9.0,-34.5,-0.0012836364040550686,-0.4978060166883646,0.11347411182211188,0.8598320463745399,22.31195735844834,58.84466325027953,-167.13602241934046,0.60894775390625,0.43353271484375,0.27117919921875,-0.60638427734375,22.656758465653716,58.87512742779961,-76.85907319031271,0.17029333731389695,,,,3,0,3,3
1788939312.7337213,4574258565.0,-8.43359375,1.94921875,4.6796875,0.052734375,0.029296875,0.005859375,11.8125,-9.0,-34.5,11.8125,-9.0,-34.5,-0.001219951247417091,-0.49786930060311263,0.11376227582623054,0.8597574168535902,22.365321353530252,58.85000891899779,-167.1122330722342,0.60882568359375,0.43377685546875,0.2711181640625,-0.60638427734375,22.699185764544925,58.89237468297593,-76.84618974538145,0.0,,,,3,0,3,3
1788939312.7386894,4574262348.0,-8.43359375,1.94921875,4.6796875,0.060546875,0.03125,-0.00390625,12.5625,-9.8125,-33.75,12.5625,-9.8125,-33.75,-0.0011363442744971503,-0.4979225249255486,0.11403584076104016,0.8596904645948906,22.413152966093424,58.85479942342139,-167.09443813278375,0.60882568359375,0.43377685546875,0.2711181640625,-0.60638427734375,22.699185764544925,58.89237468297593,-76.84618974538145,0.0,,,,3,0,3,3
1788939312.7426887,4574267031.0,-8.4296875,1.984375,4.6015625,0.052734375,0.033203125,0.001953125,12.5625,-9.8125,-33.75,12.5625,-9.8125,-33.75,-0.001066208549878915,-0.49801481667579134,0.11435647953779342,0.8595944980968807,22.47419785520855,58.86348684163202,-167.0661755951289,0.608642578125,0.43402099609375,0.27099609375,-0.60638427734375,22.740964147118277,58.89772102159413,-76.82562028655042,0.8207346081910539,,,,3,0,3,3
1788939312.7476873,4574270614.0,-8.390625,2.0234375,4.6015625,0.052734375,0.037109375,0.001953125,12.8125,-9.4375,-34.0625,12.8125,-9.4375,-34.0625,-0.001029279525424622,-0.4980885571984346,0.1146039222454035,0.8595188600476488,22.52326079447373,58.87006514575914,-167.04096248515157,0.608642578125,0.43402099609375,0.27099609375,-0.60638427734375,22.740964147118277,58.89772102159413,-76.82562028655042,0.8320800348039958,,,,3,0,3,3
1788939312.7486985,4574274690.0,-8.43359375,2.0234375,4.640625,0.052734375,0.037109375,0.001953125,12.8125,-9.4375,-34.0625,12.8125,-9.4375,-34.0625,-0.0009837642706294314,-0.4981670042954693,0.11488784916789307,0.8594355415926859,22.578821038416454,58.87690547955998,-167.01304990382317,0.608642578125,0.43402099609375,0.27099609375,-0.60638427734375,22.740964147118277,58.89772102159413,-76.82562028655042,0.846580768651286,,,,3,0,3,3
1788939312.7516375,4574278396.0,-8.4296875,2.0234375,4.5625,0.05078125,0.03515625,-0.005859375,12.8125,-9.4375,-34.0625,12.8125,-9.4375,-34.0625,-0.0009314390680766896,-0.49826095204269244,0.11512113127528706,0.8593499178010493,22.625075816560493,58.88663352125977,-166.99067485094977,0.60845947265625,0.434326171875,0.27099609375,-0.60638427734375,22.78545738000079,58.927777548325544,-76.8158168490697,0.3988242572380849,,,,3,0,3,3
1788939312.7579942,4574281679.0,-8.43359375,2.1015625,4.5625,0.048828125,0.03515625,-0.01171875,12.25,-7.75,-35.3125,12.25,-7.75,-35.3125,-0.0009788977910674946,-0.4984046600474018,0.1151220912238545,0.8592663968260339,22.640391132964098,58.90358109914067,-166.97103817498706,0.60845947265625,0.434326171875,0.27099609375,-0.60638427734375,22.78545738000079,58.927777548325544,-76.8158168490697,0.38926402922748726,,,,3,0,3,3
1788939312.7619982,4574285962.0,-8.43359375,2.1015625,4.6015625,0.05078125,0.033203125,-0.017578125,12.25,-7.75,-35.3125,12.25,-7.75,-35.3125,-0.0010495343176019818,-0.4985684828336136,0.11509761453481145,0.8591745489311825,22.654640072616534,58.922860091786184,-166.94831098325636,0.6082763671875,0.43450927734375,0.27093505859375,-0.6064453125,22.80701154685833,58.93905952708617,-76.81975793558048,0.6403811596453064,,,,3,0,3,3
1788939312.7640448,4574290392.0,-8.4296875,2.140625,4.6015625,0.05078125,0.033203125,-0.017578125,12.25,-7.75,-35.3125,12.25,-7.75,-35.3125,-0.0011513028359823412,-0.49872646287987066,0.11511826774412426,0.8590799579531029,22.68036749597932,58.939917971396866,-166.91533957154385,0.6082763671875,0.43450927734375,0.27093505859375,-0.6064453125,22.80701154685833,58.93905952708617,-76.81975793558048,0.6326198802896524,,,,3,0,3,3
1788939312.770087,4574293798.0,-8.39453125,2.0625,4.48828125,0.04296875,0.033203125,-0.01953125,11.5,-8.6875,-38.625,11.5,-8.6875,-38.625,-0.0011593954614716629,-0.4988835104759691,0.11517628009948028,0.8589809795797482,22.703683230584083,58.958699504186924,-166.8957986857609,0.6082763671875,0.43450927734375,0.27093505859375,-0.6064453125,22.80701154685833,58.93905952708617,-76.81975793558048,0.6347300030136364,,,,3,0,3,3
1788939312.7730863,4574297804.0,-8.47265625,2.0234375,4.48828125,0.033203125,0.0234375,-0.025390625,11.5,-8.6875,-38.625,11.5,-8.6875,-38.625,-0.0011319305148435419,-0.49906364225472466,0.11518448856551546,0.8588752722640572,22.715453997146035,58.98206973029102,-166.88649352882422,0.60809326171875,0.43475341796875,0.27099609375,-0.6064453125,22.83468165373044,58.96918107077448,-76.81659099885708,0.29711049322805727,,,,3,0,3,3
1788939312.778087,4574301587.0,-8.4296875,1.94921875,4.48828125,0.01953125,0.017578125,-0.03125,13.875,-10.0,-40.125,13.875,-10.0,-40.125,-0.0010559284668609336,-0.49920761853390966,0.11524519357898558,0.8587835489631351,22.72978260674105,59.00132368980188,-166.88325205613393,0.60809326171875,0.43475341796875,0.27099609375,-0.6064453125,22.83468165373044,58.96918107077448,-76.81659099885708,0.3152486674377459,,,,3,0,3,3
1788939312.7761433,4574305193.0,-8.46875,1.94921875,4.5234375,0.01953125,0.0078125,-0.029296875,13.875,-10.0,-40.125,13.875,-10.0,-40.125,-0.0009798754277278508,-0.4993302407763441,0.11530113036663046,0.8587048385950564,22.74165258248958,59.01795144380135,-166.8821317766485,0.60791015625,0.434814453125,0.27099609375,-0.6065673828125,22.823772242644683,58.97817876675998,-76.84594242608435,0.6085161444376816,,,,3,0,3,3
1788939312.7783027,4574309523.0,-8.46875,1.91015625,4.48828125,0.01953125,0.0078125,-0.029296875,13.875,-10.0,-40.125,13.875,-10.0,-40.125,-0.0008737859689890854,-0.4994859261201761,0.11533515013515208,0.8586098352856507,22.748614124487936,59.03987134430226,-166.8864809119055,0.60791015625,0.434814453125,0.27099609375,-0.6065673828125,22.823772242644683,58.97817876675998,-76.84594242608435,0.6191145730299069,,,,3,0,3,3
1788939312.7847805,4574313629.0,-8.47265625,1.87109375,4.44921875,0.017578125,0.00390625,-0.02734375,15.0,-9.25,-40.9375,15.0,-9.25,-40.9375,-0.0007980142281077273,-0.49962228255316804,0.11520656755334978,0.8585478348596712,22.725882761624387,59.0610261199898,-166.90426291466932,0.60791015625,0.434814453125,0.27099609375,-0.6065673828125,22.823772242644683,58.97817876675998,-76.84594242608435,0.6181253695173174,,,,3,0,2,3
1788939312.7922642,4574317335.0,-8.43359375,1.87109375,4.48828125,0.013671875,-0.0078125,-0.017578125,15.0,-9.25,-40.9375,15.0,-9.25,-40.9375,-0.0007483715646726645,-0.49971354289505804,0.11507237964023231,0.8585127619501088,22.70146517156161,59.07588351346072,-166.92120125420823,0.6077880859375,0.434814453125,0.27105712890625,-0.60662841796875,22.804764034391805,58.98497331904056,-76.86593374049757,0.9541684465342792,,,,3,0,2,3
