pc_unix,dev_us,ax,ay,az,gx,gy,gz,mx_raw,my_raw,mz_raw,mx,my,mz,host_qw,host_qx,host_qy,host_qz,host_roll,host_pitch,host_yaw,chip_qw,chip_qx,chip_qy,chip_qz,chip_roll,chip_pitch,chip_yaw,diff_deg,rel_roll,rel_pitch,rel_yaw,cal_acc,cal_gyr,cal_mag,cal_rv
1788945041.4740913,129667975.0,-9.54296875,0.109375,2.80078125,0.048828125,-0.087890625,0.017578125,23.0,1.1875,-38.125,23.0,1.1875,-38.125,-0.0235243989738126,-0.5950491921791855,-0.009706338500820576,0.8032862805580133,2.4350810334733373,73.02777519774547,-174.84222081476446,0.58270263671875,0.4156494140625,0.4239501953125,-0.554931640625,2.6924901991293924,72.82122021930597,-85.21509731309939,2.659709477379438,,,,2,0,2,3
1788945041.4782178,129672382.0,-9.58203125,0.1484375,2.80078125,0.05859375,-0.09765625,0.02734375,23.0,1.1875,-38.125,23.0,1.1875,-38.125,-0.02351857029067111,-0.595007363412493,-0.009576078825272305,0.803318998313079,2.473363830826305,73.02100355967994,-174.81506633065172,0.58270263671875,0.4156494140625,0.4239501953125,-0.554931640625,2.6924901991293924,72.82122021930597,-85.21509731309939,2.6744027538965085,,,,2,0,2,3
1788945041.4868238,129681047.0,-9.58203125,0.0703125,2.87890625,0.060546875,-0.091796875,0.01171875,22.875,2.0625,-38.6875,22.875,2.0625,-38.6875,-0.02338960321763431,-0.5947542961826054,-0.00974632100073696,0.8035080975700282,2.3817591731965866,72.98647460208599,-174.90316626997682,0.5828857421875,0.41558837890625,0.4234619140625,-0.55517578125,2.76445257723505,72.76722084911688,-85.17532921149518,2.569083902848012,,,,2,0,2,3
1788945041.488825,129684424.0,-9.5390625,0.109375,2.87890625,0.060546875,-0.091796875,0.01171875,22.875,2.0625,-38.6875,22.875,2.0625,-38.6875,-0.023357054217411095,-0.5946563278789505,-0.00981218037849189,0.8035807494259848,2.3504514257405553,72.97304884005239,-174.93169648148904,0.5828857421875,0.41558837890625,0.4234619140625,-0.55517578125,2.76445257723505,72.76722084911688,-85.17532921149518,2.5607664449046372,,,,2,0,2,3
1788945041.4946167,129688083.0,-9.50390625,0.109375,2.953125,0.06640625,-0.091796875,0.009765625,23.3125,0.625,-38.5,23.3125,0.625,-38.5,-0.023277204883635105,-0.5944662240684429,-0.009549961013155006,0.8037268680461419,2.4081969841296114,72.9445872070412,-174.90188473592943,0.58294677734375,0.41552734375,0.42303466796875,-0.555419921875,2.8044357507573436,72.7071154228514,-85.15284957892688,2.7356916294140854,,,,2,0,2,3
1788945041.497729,129692189.0,-9.46484375,0.1875,2.91796875,0.060546875,-0.09765625,0.005859375,23.3125,0.625,-38.5,23.3125,0.625,-38.5,-0.02325647963576335,-0.5942910092384932,-0.009239691533533288,0.80386065993654,2.495010898991048,72.91775579825824,-174.84210446252715,0.58294677734375,0.41552734375,0.42303466796875,-0.555419921875,2.8044357507573436,72.7071154228514,-85.15284957892688,2.7688397696423928,,,,2,0,2,3
1788945041.502571,129695772.0,-9.42578125,0.22265625,3.03125,0.060546875,-0.09765625,0.001953125,23.3125,0.625,-38.5,23.3125,0.625,-38.5,-0.02323310449302264,-0.5940784136654489,-0.009028296326799558,0.8040208648647096,2.548884562823286,72.88624375886076,-174.80736307296385,0.5830078125,0.41546630859375,0.422607421875,-0.55572509765625,2.8343707098706874,72.65692574469175,-85.15783334225148,2.7697910369177023,,,,2,0,2,3
1788945041.508525,129700655.0,-9.42578125,0.22265625,2.953125,0.052734375,-0.08984375,0.001953125,22.3125,-1.0625,-32.6875,22.3125,-1.0625,-32.6875,-0.0231802176581787,-0.5938893409293279,-0.008675629181262157,0.8041659416427416,2.6406271748899246,72.85725216354354,-174.7487610427764,0.5830078125,0.41546630859375,0.422607421875,-0.55572509765625,2.8343707098706874,72.65692574469175,-85.15783334225148,2.8071617502490986,,,,2,0,3,3
1788945041.5071146,129705338.0,-9.421875,0.30078125,3.03125,0.04296875,-0.087890625,-0.001953125,22.3125,-1.0625,-32.6875,22.3125,-1.0625,-32.6875,-0.02315052263963119,-0.5936916197351472,-0.008369878703672388,0.8043160194154132,2.722561886765759,72.8272502605164,-174.69421899075095,0.5831298828125,0.4154052734375,0.42218017578125,-0.5560302734375,2.8739549992571845,72.61672282437337,-85.16409714304862,2.6452827062856272,,,,2,0,3,3
1788945041.5090678,129711721.0,-9.3828125,0.26171875,3.03125,0.0390625,-0.08203125,0.0,20.125,0.0625,-31.8125,20.125,0.0625,-31.8125,-0.02313763432311713,-0.5933876308025016,-0.00799920822959299,0.8045444562957497,2.8247127220574186,72.78165305292644,-174.62335396319256,0.5831298828125,0.4154052734375,0.42218017578125,-0.5560302734375,2.8739549992571845,72.61672282437337,-85.16409714304862,2.6876352873472316,,,,2,0,3,3
1788945041.518335,129715304.0,-9.38671875,0.26171875,3.0703125,0.033203125,-0.07421875,-0.0078125,20.125,0.0625,-31.8125,20.125,0.0625,-31.8125,-0.02312280737318773,-0.5932181586780743,-0.007819580392490531,0.8046716138626137,2.8713320016886223,72.75643576189985,-174.59258997367374,0.58319091796875,0.415283203125,0.421875,-0.5562744140625,2.875037282688196,72.57125439145577,-85.18086216516338,2.7341890550420227,,,,2,0,3,3
1788945041.5202882,129720786.0,-9.3828125,0.22265625,3.109375,0.025390625,-0.072265625,-0.00390625,19.75,1.875,-32.0625,19.75,1.875,-32.0625,-0.023132081492569057,-0.592947531195066,-0.007946823269792118,0.8048695422585055,2.8248225461838006,72.71882813020889,-174.62778156044337,0.58319091796875,0.415283203125,0.421875,-0.5562744140625,2.875037282688196,72.57125439145577,-85.18086216516338,2.7197507473336153,,,,2,0,3,3
1788945041.5318546,129725269.0,-9.34375,0.22265625,3.109375,0.009765625,-0.064453125,-0.00390625,19.75,1.875,-32.0625,19.75,1.875,-32.0625,-0.023160885220444204,-0.5927372888228146,-0.008075199114091594,0.8050222798122126,2.784607650716163,72.68973453725582,-174.65501214399671,0.58331298828125,0.41510009765625,0.421630859375,-0.5565185546875,2.859323232967235,72.53631012211714,-85.2183336105756,2.5616197929609568,,,,2,0,3,3
1788945041.5338078,129730852.0,-9.3828125,0.22265625,3.14453125,0.0078125,-0.060546875,-0.01171875,20.4375,-0.9375,-32.25,20.4375,-0.9375,-32.25,-0.023133214980777188,-0.5925213899459968,-0.007833651824964157,0.80518438305782,2.8457182647575414,72.65758075323458,-174.61586401861828,0.58331298828125,0.41510009765625,0.421630859375,-0.5565185546875,2.859323232967235,72.53631012211714,-85.2183336105756,2.590431871422652,,,,2,0,3,3
1788945041.5318546,129735682.0,-9.34375,0.1875,3.14453125,0.0078125,-0.060546875,-0.01171875,20.4375,-0.9375,-32.25,20.4375,-0.9375,-32.25,-0.02310019654227819,-0.5923287243551618,-0.007630768985292167,0.8053290225666699,2.8943018547125328,72.62900102613268,-174.58652495545888,0.58331298828125,0.41510009765625,0.421630859375,-0.5565185546875,2.859323232967235,72.53631012211714,-85.2183336105756,2.6147940227547473,,,,2,0,3,3
1788945041.5338078,129739464.0,-9.34375,0.1875,3.14453125,0.0078125,-0.056640625,-0.01171875,19.125,1.4375,-32.1875,19.125,1.4375,-32.1875,-0.023100436339802494,-0.5921460672020855,-0.007714287339464885,0.8054625346401023,2.862438472954421,72.6036450766951,-174.61143568152593,0.5833740234375,0.41497802734375,0.42144775390625,-0.556640625,2.856205215842971,72.49879012361335,-85.21870239402888,2.719979831504209,,,,2,0,3,3
1788945041.5464685,129744771.0,-9.3125,0.109375,3.14453125,0.00390625,-0.046875,-0.015625,19.125,1.4375,-32.1875,19.125,1.4375,-32.1875,-0.023062029811729844,-0.5919193145229596,-0.007878398515617332,0.8056286977959893,2.7956549114118636,72.57270422162189,-174.6678076719279,0.5833740234375,0.41497802734375,0.42144775390625,-0.556640625,2.856205215842971,72.49879012361335,-85.21870239402888,2.7014599258248277,,,,2,0,3,3
1788945041.5464685,129750830.0,-9.31640625,0.0703125,3.109375,0.001953125,-0.041015625,-0.01171875,19.125,1.4375,-32.1875,19.125,1.4375,-32.1875,-0.02301119164092545,-0.5916920845054934,-0.008100277459513364,0.8057948545987916,2.708525662134973,72.54210410862594,-174.74080796138537,0.5833740234375,0.41497802734375,0.42144775390625,-0.556640625,2.856205215842971,72.49879012361335,-85.21870239402888,2.6765391787926305,,,,2,0,3,3
1788945041.5504036,129754660.0,-9.3125,0.0703125,3.0703125,0.005859375,-0.037109375,-0.00390625,19.125,1.4375,-32.1875,19.125,1.4375,-32.1875,-0.022983451252991446,-0.5915534409365869,-0.008252946419940507,0.8058958843175557,2.6509357741636057,72.52352355633847,-174.78809010664844,0.5833740234375,0.41497802734375,0.42144775390625,-0.556640625,2.856205215842971,72.49879012361335,-85.21870239402888,2.659596581512133,,,,2,0,3,3
1788945041.5676281,129758996.0,-9.31640625,0.03125,3.0703125,0.00390625,-0.0390625,-0.001953125,19.0,0.125,-37.5,19.0,0.125,-37.5,-0.0228930447408726,-0.591387543932112,-0.008140809660418212,0.8060213450042806,2.6596526973316528,72.49957172390116,-174.79589999344105,0.58349609375,0.4146728515625,0.42120361328125,-0.556884765625,2.811719304198629,72.43806002453968,-85.25768539986048,2.7830554028906556,,,,2,0,3,3
1788945041.5700498,129762425.0,-9.31640625,0.03125,3.0703125,0.017578125,-0.033203125,0.005859375,19.0,0.125,-37.5,19.0,0.125,-37.5,-0.02281675211562143,-0.5912654842667125,-0.008025671805138744,0.8061142050167708,2.673861002517418,72.48177481259458,-174.79732902520126,0.58349609375,0.4146728515625,0.42120361328125,-0.556884765625,2.811719304198629,72.43806002453968,-85.25768539986048,2.7955367124084636,,,,2,0,3,3
1788945041.5700498,129770561.0,-9.34765625,0.109375,3.109375,0.021484375,-0.029296875,0.015625,24.0625,1.6875,-37.5625,24.0625,1.6875,-37.5625,-0.022814353381974677,-0.5910041840723257,-0.008201145900218866,0.806304099514997,2.6113597251265075,72.44586358367296,-174.8455143665642,0.58355712890625,0.4146728515625,0.42108154296875,-0.55694580078125,2.8354327040328617,72.43038371285013,-85.24827908044617,2.6799976632567852,,,,2,0,2,3
1788945041.5700498,129774468.0,-9.34765625,0.1484375,3.14453125,0.017578125,-0.025390625,0.021484375,24.0625,1.6875,-37.5625,24.0625,1.6875,-37.5625,-0.02284325078991068,-0.5908722899337258,-0.00825805227011982,0.8063993597805794,2.596317907981662,72.42743718847551,-174.85345615626954,0.58355712890625,0.4146728515625,0.42108154296875,-0.55694580078125,2.8354327040328617,72.43038371285013,-85.24827908044617,2.6750134102878333,,,,2,0,2,3
1788945041.5844915,129778327.0,-9.42578125,0.22265625,3.109375,0.01953125,-0.0234375,0.015625,22.25,0.125,-39.0,22.25,0.125,-39.0,-0.02286587928151435,-0.5907764336225256,-0.008048656141894622,0.8064710634457024,2.6623009667871815,72.41243639772718,-174.80273874309452,0.5836181640625,0.4146728515625,0.4208984375,-0.5570068359375,2.8710239945356886,72.40919347275953,-85.22027846025385,2.7203828000318118,,,,2,0,2,3
1788945041.5880134,129782433.0,-9.42578125,0.1875,3.109375,0.025390625,-0.01171875,0.01953125,22.25,0.125,-39.0,22.25,0.125,-39.0,-0.02287505126229358,-0.5906877260241971,-0.00781841750417594,0.8065380429352611,2.7317633246404687,72.3983459641217,-174.75135864841482,0.5836181640625,0.4146728515625,0.4208984375,-0.5570068359375,2.8710239945356886,72.40919347275953,-85.22027846025385,2.7471644378079523,,,,2,0,2,3
1788945041.5970871,129790422.0,-9.5,0.22265625,3.109375,0.025390625,-0.0078125,0.009765625,22.375,1.1875,-38.1875,22.375,1.1875,-38.1875,-0.023005141295697914,-0.5904521541918556,-0.007714862314171444,0.8067078145051253,2.784761198722832,72.3638490311819,-174.69606700762634,0.58367919921875,0.41473388671875,0.4207763671875,-0.5570068359375,2.918848902622014,72.40480954636166,-85.18332561460443,2.701130269757621,,,,2,0,2,3
1788945041.5980139,129793799.0,-9.5390625,0.22265625,3.109375,0.025390625,-0.0078125,0.009765625,22.375,1.1875,-38.1875,22.375,1.1875,-38.1875,-0.023070115256833185,-0.5903554994952133,-0.007679032924231247,0.8067770363930434,2.8070057477262105,72.34969681659337,-174.67138375502228,0.58367919921875,0.41473388671875,0.4207763671875,-0.5570068359375,2.918848902622014,72.40480954636166,-85.18332561460443,2.707182437141716,,,,2,0,2,3
1788945041.603739,129798235.0,-9.62109375,0.30078125,3.109375,0.025390625,-0.001953125,0.00390625,21.8125,0.25,-33.1875,21.8125,0.25,-33.1875,-0.02311545972578732,-0.5903205752476788,-0.00742661430697745,0.8068036560160412,2.8927375244630853,72.34291474617703,-174.60261296380037,0.5836181640625,0.414794921875,0.420654296875,-0.55706787109375,2.937761352013328,72.39055779604189,-85.17105967157218,2.8534147148976126,,,,2,0,3,3
1788945041.6060538,129801564.0,-9.58203125,0.30078125,3.109375,0.015625,-0.005859375,0.00390625,21.8125,0.25,-33.1875,21.8125,0.25,-33.1875,-0.023158730546609527,-0.5902826180710952,-0.007253379292133356,0.806831762197949,2.9537769485189753,72.33622001558815,-174.55221050032367,0.5836181640625,0.414794921875,0.420654296875,-0.55706787109375,2.937761352013328,72.39055779604189,-85.17105967157218,2.8732803770035504,,,,2,0,3,3
1788945041.6060538,129806124.0,-9.58203125,0.37890625,3.0703125,0.009765625,0.001953125,-0.0078125,21.8125,0.25,-33.1875,21.8125,0.25,-33.1875,-0.023222904429117404,-0.5902752940657356,-0.00703840289113696,0.8068371798635877,3.033162081947684,72.33348668252016,-174.48518500092803,0.5836181640625,0.41485595703125,0.42059326171875,-0.55712890625,2.95438086717384,72.39953724220649,-85.17847523570858,2.731423607932564,,,,2,0,3,3
1788945041.617932,129813907.0,-9.58203125,0.37890625,3.0703125,0.009765625,-0.001953125,-0.009765625,19.9375,0.4375,-32.8125,19.9375,0.4375,-32.8125,-0.02334518035223171,-0.590248118792755,-0.006684927387422146,0.8068565377821266,3.1668407978458273,72.32673221473273,-174.3704467396545,0.5836181640625,0.41485595703125,0.42059326171875,-0.55712890625,2.95438086717384,72.39953724220649,-85.17847523570858,2.7742729979568055,,,,2,0,3,3
1788945041.6229804,129820743.0,-9.50390625,0.33984375,3.0703125,-0.00390625,0.00390625,-0.01953125,20.25,0.375,-33.125,20.25,0.375,-33.125,-0.02343461069980968,-0.5902097613163424,-0.006433337555958694,0.8068840491893154,3.2617826929442626,72.31918103442345,-174.28878016669995,0.58355712890625,0.41485595703125,0.420654296875,-0.55712890625,2.932924680577185,72.40330705211215,-85.1959811243737,2.8573583794538036,,,,2,0,3,3
1788945041.6269388,129821996.0,-9.46484375,0.37890625,3.0703125,-0.01171875,0.00390625,-0.013671875,20.25,0.375,-33.125,20.25,0.375,-33.125,-0.02345871435727874,-0.5902018082450984,-0.006390317007983587,0.8068895079956471,3.2799191125650804,72.31765320062793,-174.2721902591762,0.58355712890625,0.41485595703125,0.420654296875,-0.55712890625,2.932924680577185,72.40330705211215,-85.1959811243737,2.862690836454768,,,,2,0,3,3
1788945041.628918,129825825.0,-9.4609375,0.30078125,3.0703125,-0.01171875,0.00390625,-0.013671875,20.25,0.375,-33.125,20.25,0.375,-33.125,-0.023517859799252267,-0.5901650383316168,-0.0062602434901000825,0.8069157001527164,3.33122085159832,72.31128123420288,-174.22668501681713,0.58355712890625,0.41485595703125,0.420654296875,-0.55712890625,2.932924680577185,72.40330705211215,-85.1959811243737,2.878758540771853,,,,2,0,3,3
1788945041.6349852,129829608.0,-9.421875,0.30078125,3.03125,-0.017578125,0.005859375,-0.017578125,20.0625,1.9375,-31.625,20.0625,1.9375,-31.625,-0.023579332719793743,-0.590165087751701,-0.006482040837434147,0.8069121187676501,3.2775655021261945,72.31261670402097,-174.25711035205882,0.58355712890625,0.414794921875,0.42071533203125,-0.55712890625,2.906579775002861,72.40391848449828,-85.21539253444001,2.8627940074650824,,,,2,0,3,3
1788945041.6390622,129833714.0,-9.42578125,0.33984375,3.03125,-0.01171875,0.01171875,-0.017578125,20.0625,1.9375,-31.625,20.0625,1.9375,-31.625,-0.023665962559623565,-0.5901753238881315,-0.006700238766157667,0.8069003136014646,3.2309561261908044,72.31526382096773,-174.27872592982928,0.58355712890625,0.414794921875,0.42071533203125,-0.55712890625,2.906579775002861,72.40391848449828,-85.21539253444001,2.8394533507840984,,,,2,0,3,3
1788945041.6456697,129840427.0,-9.3828125,0.33984375,3.03125,-0.021484375,0.009765625,-0.02734375,19.375,0.9375,-32.5,19.375,0.9375,-32.5,-0.02389402952001374,-0.5901258808811001,-0.006645016921717899,0.8069302100043797,3.296624653424519,72.30695016329594,-174.19885192658998,0.58355712890625,0.41473388671875,0.42083740234375,-0.55712890625,2.868333030149696,72.41803657447787,-85.25342169474706,2.743217081277067,,,,2,0,3,3
1788945041.6476228,129841004.0,-9.3828125,0.33984375,3.03125,-0.021484375,0.009765625,-0.02734375,19.375,0.9375,-32.5,19.375,0.9375,-32.5,-0.023913855427022523,-0.5901216551742801,-0.006640593774261043,0.8069327494452737,3.3022182423442046,72.30623932713941,-174.19199252815972,0.58355712890625,0.41473388671875,0.42083740234375,-0.55712890625,2.868333030149696,72.41803657447787,-85.25342169474706,2.7441591425084293,,,,2,0,3,3
1788945041.6535773,129845186.0,-9.34375,0.26171875,3.03125,-0.021484375,0.017578125,-0.03125,19.375,0.9375,-32.5,19.375,0.9375,-32.5,-0.024024522680503625,-0.5900587575374165,-0.006706712157801192,0.8069749097558155,3.3044485555131806,72.29736093099703,-174.17523117876271,0.58349609375,0.41461181640625,0.42095947265625,-0.55712890625,2.8060323731931023,72.40951552968342,-85.29122061266256,2.9217644132766565,,,,2,0,3,3
1788945041.6574538,129850669.0,-9.34375,0.26171875,3.03125,-0.02734375,0.017578125,-0.04296875,19.125,1.0,-32.25,19.125,1.0,-32.25,-0.024158145648050335,-0.589980077059904,-0.006873276406441861,0.8070270446166461,3.2807385925123413,72.28688199064149,-174.17428199606695,0.58349609375,0.41461181640625,0.42095947265625,-0.55712890625,2.8060323731931023,72.40951552968342,-85.29122061266256,2.9067770921613105,,,,2,0,3,3
1788945041.6615005,129856329.0,-9.34375,0.22265625,2.9921875,-0.033203125,0.015625,-0.046875,19.125,1.0,-32.25,19.125,1.0,-32.25,-0.02429879150356559,-0.5899743214735224,-0.007224082680147006,0.8070239657920659,3.2053967708856717,72.28802305058721,-174.20931558919096,0.58343505859375,0.41448974609375,0.42120361328125,-0.55712890625,2.719815211659151,72.42800523883744,-85.36638360336273,2.825245786207767,,,,2,0,3,3
1788945041.6674578,129860435.0,-9.34765625,0.109375,2.953125,-0.025390625,0.009765625,-0.04296875,19.125,-0.5,-38.5,19.125,-0.5,-38.5,-0.024195761886048342,-0.5900029877099632,-0.00712427095400238,0.8070069915207952,3.213820294590996,72.29177500910308,-174.21754360706606,0.58343505859375,0.41448974609375,0.42120361328125,-0.55712890625,2.719815211659151,72.42800523883744,-85.36638360336273,2.834137641931693,,,,2,0,3,3
1788945041.6655047,129865364.0,-9.34375,0.03125,2.91796875,-0.025390625,0.009765625,-0.04296875,19.125,-0.5,-38.5,19.125,-0.5,-38.5,-0.02402006342616717,-0.5900621111093791,-0.007037574681905135,0.8069697727478659,3.2032204376038074,72.30022240258367,-174.24969593472122,0.58343505859375,0.41448974609375,0.42120361328125,-0.55712890625,2.719815211659151,72.42800523883744,-85.36638360336273,2.839811385356861,,,,2,0,3,3
1788945041.6674578,129868747.0,-9.31640625,-0.0078125,2.91796875,-0.021484375,0.005859375,-0.037109375,23.6875,1.25,-37.6875,23.6875,1.25,-37.6875,-0.023930742824905232,-0.5900928097055758,-0.007256973426876805,0.8069480353890881,3.117895408529958,72.30646793815403,-174.32437299608583,0.58331298828125,0.41436767578125,0.42138671875,-0.55718994140625,2.6261263696818915,72.43281624422784,-85.44877718028158,2.889258797580212,,,,2,0,2,3
1788945041.660687,129872254.0,-9.34375,0.03125,2.87890625,-0.021484375,0.0078125,-0.03125,23.6875,1.25,-37.6875,23.6875,1.25,-37.6875,-0.02385893932554408,-0.5901545361906714,-0.007462926016509017,0.8069031411285407,3.0415683968488993,72.31691799634022,-174.38973294062555,0.58331298828125,0.41436767578125,0.42138671875,-0.55718994140625,2.6261263696818915,72.43281624422784,-85.44877718028158,2.864031236322745,,,,2,0,2,3
1788945041.6830943,129880713.0,-9.3828125,0.03125,2.83984375,-0.0078125,-0.0078125,-0.01953125,23.6875,1.25,-37.6875,23.6875,1.25,-37.6875,-0.023707746329638887,-0.5902932480045484,-0.007832430699770177,0.8068026258965346,2.9003833521186997,72.33965238511477,-174.513091049482,0.583251953125,0.41424560546875,0.4215087890625,-0.5572509765625,2.553993484304385,72.43385865547893,-85.51355327781708,2.8423030074642086,,,,2,0,2,3
1788945041.6839228,129885196.0,-9.42578125,-0.04296875,2.83984375,0.00390625,-0.009765625,-0.01953125,22.5625,0.125,-38.9375,22.5625,0.125,-38.9375,-0.02354090465971513,-0.5903845095916809,-0.00783604185770776,0.806740697554051,2.8651594117210433,72.35319761079212,-174.56175058292834,0.583251953125,0.41424560546875,0.4215087890625,-0.5572509765625,2.553993484304385,72.43385865547893,-85.51355327781708,2.8377966411184286,,,,2,0,2,3
1788945041.685876,129888479.0,-9.4609375,0.03125,2.83984375,0.005859375,-0.017578125,-0.013671875,22.5625,0.125,-38.9375,22.5625,0.125,-38.9375,-0.023455549375010033,-0.5904456765576873,-0.00778892772996913,0.8066988737085657,2.8624984117910772,72.36184736894788,-174.57530666982055,0.583251953125,0.4141845703125,0.4215087890625,-0.55731201171875,2.529880682963487,72.43054351449425,-85.5411201278652,2.8053185286183013,,,,2,0,2,3
1788945041.7000785,129892385.0,-9.5390625,-0.0078125,2.87890625,0.013671875,-0.01953125,-0.015625,22.5625,0.125,-38.9375,22.5625,0.125,-38.9375,-0.023316416940654772,-0.5905120514693531,-0.007745513086339929,0.8066547395246214,2.8468708470988466,72.37145080161243,-174.60593954780146,0.583251953125,0.4141845703125,0.4215087890625,-0.55731201171875,2.529880682963487,72.43054351449425,-85.5411201278652,2.807134617222974,,,,2,0,2,3
1788945041.7031312,129895768.0,-9.5390625,-0.0078125,2.83984375,0.01171875,-0.02734375,-0.0078125,22.5625,0.125,-38.9375,22.5625,0.125,-38.9375,-0.0232221093060922,-0.5905638337717501,-0.007708354230657183,0.8066199062478209,2.8388437734628766,72.37887082939547,-174.62477457533652,0.583251953125,0.41412353515625,0.42138671875,-0.55743408203125,2.520111046065166,72.40980510328396,-85.5580161421816,2.844819994714104,,,,2,0,2,3
1788945041.7080865,129901050.0,-9.5390625,-0.04296875,2.83984375,0.009765625,-0.033203125,-0.001953125,23.25,0.8125,-32.3125,23.25,0.8125,-32.3125,-0.02311185850587039,-0.5906046058766119,-0.007848212973795907,0.8065918714361399,2.772933247063846,72.38595565678115,-174.6882811014306,0.583251953125,0.41412353515625,0.42138671875,-0.55743408203125,2.520111046065166,72.40980510328396,-85.5580161421816,2.82690220510114,,,,2,0,3,3
1788945041.7131326,129905733.0,-9.5,-0.04296875,2.83984375,0.013671875,-0.048828125,-0.001953125,23.25,0.8125,-32.3125,23.25,0.8125,-32.3125,-0.02300653106658785,-0.5906091627383353,-0.007967002020314678,0.8065903813563692,2.713334327404774,72.38773623385151,-174.7467820778251,0.58331298828125,0.4140625,0.4212646484375,-0.5574951171875,2.5296699225028427,72.38925119188046,-85.54914665700964,2.8387114765894004,,,,2,0,3,3
1788945041.719317,129912116.0,-9.5,-0.12109375,2.87890625,0.0234375,-0.060546875,0.009765625,20.0625,0.0625,-32.1875,20.0625,0.0625,-32.1875,-0.022762745814206696,-0.5905852298859028,-0.007935886337528696,0.806615128392501,2.667571593458356,72.38495689144654,-174.81508134884245,0.58331298828125,0.4140625,0.4212646484375,-0.5574951171875,2.5296699225028427,72.38925119188046,-85.54914665700964,2.8386779116058065,,,,2,0,3,3
1788945041.7184446,129915669.0,-9.4609375,-0.12109375,2.91796875,0.0234375,-0.060546875,0.009765625,20.0625,0.0625,-32.1875,20.0625,0.0625,-32.1875,-0.02260265340088199,-0.590552425262081,-0.007923438304568375,0.8066437703235224,2.63456126982058,72.38075496451968,-174.86222835315985,0.58331298828125,0.4140625,0.4212646484375,-0.5574951171875,2.5296699225028427,72.38925119188046,-85.54914665700964,2.838065569567916,,,,2,0,3,3
1788945041.7240586,129919652.0,-9.4609375,-0.12109375,2.91796875,0.02734375,-0.06640625,0.017578125,20.125,0.5625,-31.8125,20.125,0.5625,-31.8125,-0.022476552312396952,-0.5904944522267549,-0.007990101933860027,0.8066890756398398,2.5842803885000887,72.37336972642186,-174.9173590539466,0.58343505859375,0.41400146484375,0.4210205078125,-0.5576171875,2.5630437346466244,72.36105367107464,-85.5307439837246,2.7603207581005798,,,,2,0,3,3
1788945041.7284486,129925435.0,-9.3828125,-0.08203125,2.87890625,0.037109375,-0.076171875,0.033203125,20.125,0.5625,-31.8125,20.125,0.5625,-31.8125,-0.022323949480817607,-0.5904128919756404,-0.00801536911092027,0.8067527577433835,2.5400181737034147,72.36245537069264,-174.9720280756558,0.58343505859375,0.41400146484375,0.4210205078125,-0.5576171875,2.5630437346466244,72.36105367107464,-85.5307439837246,2.7560691068807053,,,,2,0,3,3
1788945041.729465,129930118.0,-9.38671875,-0.0078125,2.9921875,0.025390625,-0.078125,0.041015625,20.125,0.5625,-31.8125,20.125,0.5625,-31.8125,-0.022192060844043338,-0.5902454245538079,-0.008056687921717966,0.8068785168837508,2.4929726906180707,72.33939381617012,-175.0264243200582,0.5836181640625,0.4139404296875,0.420654296875,-0.5577392578125,2.6297494247508424,72.31567686426872,-85.47632377954956,2.7448231976381594,,,,2,0,3,3
1788945041.7334,129931171.0,-9.3828125,0.0703125,3.03125,0.03125,-0.076171875,0.044921875,20.125,0.5625,-31.8125,20.125,0.5625,-31.8125,-0.02217533103619472,-0.5901871936222978,-0.008033472968955643,0.8069218019670361,2.4945602654301675,72.33105245503307,-175.02808497242066,0.5836181640625,0.4139404296875,0.420654296875,-0.5577392578125,2.6297494247508424,72.31567686426872,-85.47632377954956,2.7476823326916415,,,,2,0,3,3
1788945041.7243724,129935200.0,-9.38671875,0.03125,2.953125,0.03125,-0.076171875,0.044921875,20.125,0.5625,-31.8125,20.125,0.5625,-31.8125,-0.022065701529705502,-0.5901236988722655,-0.008021287697927895,0.8069713649126496,2.471961847579929,72.32231940605611,-175.06064545037418,0.5836181640625,0.4139404296875,0.420654296875,-0.5577392578125,2.6297494247508424,72.31567686426872,-85.47632377954956,2.7482796378868906,,,,2,0,3,3
1788945041.7334,129938983.0,-9.3828125,0.0703125,2.9921875,0.03125,-0.07421875,0.04296875,20.125,-0.875,-31.9375,20.125,-0.875,-31.9375,-0.02206557844985244,-0.590011928092561,-0.007736208998744872,0.8070558754054762,2.5551903371795235,72.30473319151211,-175.00075116688885,0.5838623046875,0.41387939453125,0.4202880859375,-0.557861328125,2.7056604621303046,72.28001181295795,-85.4232976979734,2.599569545581362,,,,2,0,3,3
1788945041.7471929,129943489.0,-9.38671875,0.109375,3.03125,0.033203125,-0.072265625,0.0390625,20.125,-0.875,-31.9375,20.125,-0.875,-31.9375,-0.022070054278708697,-0.589867294339172,-0.007398549456900294,0.8071646357708281,2.654238006063299,72.28213045319167,-174.92895786286954,0.5838623046875,0.41387939453125,0.4202880859375,-0.557861328125,2.7056604621303046,72.28001181295795,-85.4232976979734,2.6411381454903005,,,,2,0,3,3
1788945041.7492032,129946672.0,-9.421875,0.1484375,3.03125,0.017578125,-0.078125,0.0390625,20.125,-0.875,-31.9375,20.125,-0.875,-31.9375,-0.022096226234429077,-0.5897620162603394,-0.007178223814136123,0.8072428346325599,2.723566262932345,72.26574609391571,-174.87550150340599,0.58404541015625,0.413818359375,0.419921875,-0.55792236328125,2.781372062719665,72.22523172552974,-85.34305516955193,2.8228486556385266,,,,2,0,3,3
1788945041.74725,129950979.0,-9.38671875,0.1875,3.0703125,0.037109375,-0.072265625,0.041015625,20.125,-0.875,-31.9375,20.125,-0.875,-31.9375,-0.022121673614698724,-0.589613783837594,-0.006847996317943871,0.8073532822820684,2.824525680166975,72.24256401562785,-174.7994670582283,0.58404541015625,0.413818359375,0.419921875,-0.55792236328125,2.781372062719665,72.22523172552974,-85.34305516955193,2.861086697044707,,,,2,0,3,3
1788945041.7492032,129955332.0,-9.421875,0.1875,3.0703125,0.037109375,-0.072265625,0.041015625,20.125,-0.875,-31.9375,20.125,-0.875,-31.9375,-0.022145672719478152,-0.5894688028897924,-0.006512522942923186,0.8074612601508476,2.9266321542308718,72.21978435250378,-174.72283734176168,0.58404541015625,0.413818359375,0.419921875,-0.55792236328125,2.781372062719665,72.22523172552974,-85.34305516955193,2.9000167383528015,,,,2,0,3,3
1788945041.7651854,129959191.0,-9.421875,0.1484375,3.14453125,0.033203125,-0.072265625,0.037109375,19.1875,0.0625,-37.8125,19.1875,0.0625,-37.8125,-0.022142614862352597,-0.5892814304590558,-0.006277275065125076,0.8075999604636835,2.990876877527161,72.19173961024565,-174.67805172134285,0.58428955078125,0.413818359375,0.41949462890625,-0.55804443359375,2.8826691644079467,72.18900647809063,-85.27171986490066,2.7440253110300667,,,,2,0,3,3
1788945041.7584145,129963197.0,-9.42578125,0.22265625,3.109375,0.013671875,-0.064453125,0.033203125,19.1875,0.0625,-37.8125,19.1875,0.0625,-37.8125,-0.0221894653853578,-0.5891267678948076,-0.0060339907405094085,0.807713358767498,3.0694612940547756,72.16807318393604,-174.6155065364024,0.58428955078125,0.413818359375,0.41949462890625,-0.55804443359375,2.8826691644079467,72.18900647809063,-85.27171986490066,2.7744840659978114,,,,2,0,3,3
1788945041.7651854,129967180.0,-9.42578125,0.22265625,3.14453125,0.013671875,-0.064453125,0.03515625,19.1875,0.0625,-37.8125,19.1875,0.0625,-37.8125,-0.022237730570042122,-0.588957996255314,-0.005804886278485639,0.8078367813372411,3.143422947351318,72.14248330385662,-174.55629958864918,0.58447265625,0.41375732421875,0.419189453125,-0.55810546875,2.945901274423205,72.14770781281378,-85.21068249240432,2.8367691925573366,,,,2,0,3,3
1788945041.7651854,129974863.0,-9.42578125,0.26171875,3.109375,0.009765625,-0.056640625,0.037109375,23.0,0.25,-38.25,23.0,0.25,-38.25,-0.02242151170435501,-0.5886749486679442,-0.005362569532074702,0.808041040709999,3.3070388128942865,72.09871495315993,-174.41375671506435,0.58447265625,0.41375732421875,0.419189453125,-0.55810546875,2.945901274423205,72.14770781281378,-85.21068249240432,2.892262963232235,,,,2,0,2,3
1788945041.779043,129978522.0,-9.42578125,0.22265625,3.18359375,0.00390625,-0.05078125,0.029296875,22.0,0.1875,-38.625,22.0,0.1875,-38.625,-0.0224739865168059,-0.5885171620706586,-0.005209277433257473,0.8081555130709459,3.3589992725339215,72.07513420840871,-174.3699939962345,0.58465576171875,0.4136962890625,0.4189453125,-0.55810546875,3.0067181946776325,72.11034897667521,-85.14171665805381,2.9853299792924664,,,,2,0,2,3
1788945041.780996,129982629.0,-9.4609375,0.22265625,3.14453125,0.00390625,-0.048828125,0.029296875,22.0,0.1875,-38.625,22.0,0.1875,-38.625,-0.022534203361801775,-0.58836129307328,-0.005006207997810171,0.8082686040998188,3.4275194058328933,72.05143559884439,-174.31312060026477,0.58465576171875,0.4136962890625,0.4189453125,-0.55810546875,3.0067181946776325,72.11034897667521,-85.14171665805381,3.010156258844334,,,,2,0,2,3
1788945041.790013,129986788.0,-9.5,0.22265625,3.14453125,0.009765625,-0.041015625,0.025390625,22.0,0.1875,-38.625,22.0,0.1875,-38.625,-0.022579998795467994,-0.588223790517866,-0.004786619898224457,0.8083687303410123,3.4983459699842845,72.03026265458517,-174.2564879079518,0.5848388671875,0.41363525390625,0.41876220703125,-0.55816650390625,3.046154250302439,72.09573398454394,-85.11761336331745,2.8487274246275973,,,,2,0,2,3
1788945041.7967186,129994571.0,-9.42578125,0.1875,3.14453125,0.009765625,-0.044921875,0.02734375,22.5625,0.0625,-39.25,22.5625,0.0625,-39.25,-0.02261905687006603,-0.5879266784306901,-0.004409192936710911,0.808585900244007,3.6088640001572716,71.98543082482357,-174.17359589433374,0.5848388671875,0.41363525390625,0.41876220703125,-0.55816650390625,3.046154250302439,72.09573398454394,-85.11761336331745,2.897264121050733,,,,2,0,2,3
1788945041.7967186,129998430.0,-9.5,0.1875,3.18359375,0.021484375,-0.0390625,0.0234375,22.25,0.8125,-32.4375,22.25,0.8125,-32.4375,-0.022632120615050644,-0.5877818350185076,-0.004473062009935991,0.8086904805022729,3.5872857732516796,71.96537898403102,-174.18879962763913,0.5849609375,0.41357421875,0.41851806640625,-0.55816650390625,3.097229375765124,72.0489162025185,-85.04799751256492,3.1186783797698654,,,,2,0,3,3
1788945041.7967186,130001760.0,-9.5,0.1875,3.18359375,0.025390625,-0.03125,0.017578125,22.25,0.8125,-32.4375,22.25,0.8125,-32.4375,-0.022632088732182927,-0.587668125615997,-0.004530271097833382,0.8087727983422659,3.566034046786774,71.94973407405487,-174.20531119876446,0.5849609375,0.41357421875,0.41851806640625,-0.55816650390625,3.097229375765124,72.0489162025185,-85.04799751256492,3.1137422525791534,,,,2,0,3,3
1788945041.811722,130006519.0,-9.5,0.22265625,3.18359375,0.025390625,-0.015625,0.015625,22.25,0.8125,-32.4375,22.25,0.8125,-32.4375,-0.02266297130216272,-0.5875254279379138,-0.004587897203310654,0.8088752762060294,3.550334013732172,71.92986427740601,-174.21368660647744,0.58502197265625,0.41363525390625,0.4183349609375,-0.5582275390625,3.1462480299394295,72.04064084093969,-85.02033105031595,3.010197503547227,,,,2,0,3,3
1788945041.8177116,130010825.0,-9.4609375,0.22265625,3.18359375,0.021484375,-0.013671875,0.01171875,19.4375,-0.4375,-32.3125,19.4375,-0.4375,-32.3125,-0.022655585592045193,-0.5874466067164702,-0.00434281765059858,0.8089340817604608,3.6188611949294933,71.91701321469066,-174.16583769218212,0.58502197265625,0.41363525390625,0.4183349609375,-0.5582275390625,3.1462480299394295,72.04064084093969,-85.02033105031595,3.0385641199429343,,,,2,0,3,3
1788945041.8178303,130014779.0,-9.46484375,0.22265625,3.22265625,0.021484375,-0.013671875,0.01171875,19.4375,-0.4375,-32.3125,19.4375,-0.4375,-32.3125,-0.022648022452001156,-0.5873601029780865,-0.004132089629446782,0.8089982091104279,3.676759595258719,71.9033159392907,-174.1258111330123,0.58502197265625,0.41363525390625,0.4183349609375,-0.5582275390625,3.1462480299394295,72.04064084093969,-85.02033105031595,3.0632231013252555,,,,2,0,3,3
1788945041.8247406,130020814.0,-9.50390625,0.30078125,3.14453125,0.02734375,0.001953125,0.001953125,19.6875,0.4375,-32.875,19.6875,0.4375,-32.875,-0.022750654585192324,-0.5872838461504382,-0.0038394235127722923,0.8090521309494113,3.7831532342274308,71.88994457595781,-174.03497196871257,0.58502197265625,0.41363525390625,0.4183349609375,-0.5582275390625,3.1462480299394295,72.04064084093969,-85.02033105031595,3.098027246811906,,,,2,0,3,3
1788945041.8267083,130021791.0,-9.4609375,0.33984375,3.14453125,0.02734375,0.001953125,0.001953125,19.6875,0.4375,-32.875,19.6875,0.4375,-32.875,-0.02276866994621593,-0.5872716323578804,-0.0037928922584222584,0.8090607093815068,3.8004191867342354,71.88779400616505,-174.02003967799752,0.58502197265625,0.41363525390625,0.4183349609375,-0.5582275390625,3.1462480299394295,72.04064084093969,-85.02033105031595,3.1035839238724936,,,,2,0,3,3
1788945041.8298442,130026021.0,-9.5,0.33984375,3.18359375,0.02734375,0.001953125,0.001953125,19.6875,0.4375,-32.875,19.6875,0.4375,-32.875,-0.02283539658395776,-0.587199912452899,-0.0036089621684668497,0.8091117245907562,3.8667605310049824,71.87599621475648,-173.96328113262942,0.58502197265625,0.41363525390625,0.4183349609375,-0.5582275390625,3.1462480299394295,72.04064084093969,-85.02033105031595,3.125848934189363,,,,2,0,3,3
1788945041.8347642,130029804.0,-9.54296875,0.37890625,3.22265625,0.037109375,0.001953125,-0.0078125,19.4375,1.875,-32.125,19.4375,1.875,-32.125,-0.022863433135705637,-0.5871638853297549,-0.003713980667313713,0.8091366025198207,3.8402188840984497,71.87156142237163,-173.97888983284207,0.58502197265625,0.41375732421875,0.41815185546875,-0.558349609375,3.190666025032876,72.04492623123484,-85.0171885551354,2.9064980097921724,,,,2,0,3,3
1788945041.84068,130033910.0,-9.54296875,0.37890625,3.22265625,0.0390625,0.013671875,-0.0234375,19.4375,1.875,-32.125,19.4375,1.875,-32.125,-0.022866670286201894,-0.5871442203100843,-0.003843477567726724,0.8091501761889889,3.801688588021629,71.86973157141797,-174.00652131919372,0.58502197265625,0.41375732421875,0.41815185546875,-0.558349609375,3.190666025032876,72.04492623123484,-85.0171885551354,2.8914370103781555,,,,2,0,3,3
1788945041.8463285,130040622.0,-9.50390625,0.4140625,3.18359375,0.029296875,0.037109375,-0.0390625,18.8125,-0.4375,-32.4375,18.8125,-0.4375,-32.4375,-0.022779114414575766,-0.5872008003955482,-0.0035269075551566096,0.8091130284975102,3.879032003489445,71.87577955665323,-173.96236192801072,0.5848388671875,0.413818359375,0.4180908203125,-0.5584716796875,3.169498669435678,72.03464433926659,-85.04776039202424,3.091055057611236,,,,2,0,3,3
1788945041.8482816,130041099.0,-9.4609375,0.4140625,3.22265625,0.029296875,0.037109375,-0.0390625,18.8125,-0.4375,-32.4375,18.8125,-0.4375,-32.4375,-0.0227727100184489,-0.5872026738768765,-0.003505616899218086,0.8091119416498672,3.8840492680055823,71.87591593642574,-173.95961792766988,0.5848388671875,0.413818359375,0.4180908203125,-0.5584716796875,3.169498669435678,72.03464433926659,-85.04776039202424,3.093344915673236,,,,2,0,3,3
1788945041.8481667,130045382.0,-9.50390625,0.453125,3.18359375,0.0234375,0.03125,-0.05078125,18.8125,-0.4375,-32.4375,18.8125,-0.4375,-32.4375,-0.022711107281950135,-0.5872294904717094,-0.003329549557621536,0.8090949543941722,3.9241180544280563,71.87868171619377,-173.93906224186048,0.58465576171875,0.41387939453125,0.418212890625,-0.55853271484375,3.1229479812878957,72.0547773787666,-85.10628242438298,3.106708296494317,,,,2,0,3,3
1788945041.8501198,130050864.0,-9.46484375,0.453125,3.14453125,0.0,0.044921875,-0.06640625,20.1875,0.125,-31.5,20.1875,0.125,-31.5,-0.022691164184514126,-0.5872916629865346,-0.0032051892832178157,0.8090508886442934,3.9592032837988946,71.88661772161832,-173.9158429496619,0.58465576171875,0.41387939453125,0.418212890625,-0.55853271484375,3.1229479812878957,72.0547773787666,-85.10628242438298,3.119596414904015,,,,2,0,3,3
1788945041.8501198,130057100.0,-9.421875,0.453125,3.109375,-0.001953125,0.05078125,-0.07421875,20.1875,0.125,-31.5,20.1875,0.125,-31.5,-0.0226557755926473,-0.5873919494470596,-0.003079612270260318,0.8089795606474512,3.9928372392066116,71.89999497711908,-173.89545798873803,0.5843505859375,0.41387939453125,0.41845703125,-0.55865478515625,3.010392491066102,72.07917566232472,-85.22636449121157,3.1909228407358796,,,,2,0,3,3
1788945041.8653228,130065007.0,-9.421875,0.37890625,3.0703125,-0.013671875,0.04296875,-0.076171875,20.1875,0.125,-31.5,20.1875,0.125,-31.5,-0.02262002766508377,-0.5875315478152091,-0.002950490127902996,0.8088796630391324,4.029045419331408,71.91889248550422,-173.8728347481507,0.5843505859375,0.41387939453125,0.41845703125,-0.55865478515625,3.010392491066102,72.07917566232472,-85.22636449121157,3.202950797777838,,,,2,0,3,3
1788945041.8653228,130068366.0,-9.3828125,0.30078125,3.0703125,-0.015625,0.05078125,-0.072265625,23.0,-0.25,-38.625,23.0,-0.25,-38.625,-0.02256417094966752,-0.5875909927426884,-0.0028798460300265686,0.8088382965240082,4.040348749554555,71.9270238285688,-173.87193582062423,0.5841064453125,0.413818359375,0.41876220703125,-0.55877685546875,2.880927494580967,72.11365947788586,-85.3669015755477,3.1280192652641543,,,,2,0,2,3
1788945041.8653228,130072572.0,-9.42578125,0.22265625,3.109375,-0.029296875,0.056640625,-0.083984375,23.0,-0.25,-38.625,23.0,-0.25,-38.625,-0.02244490753936564,-0.5876441459930438,-0.0028382719496523275,0.8088031454056019,4.029009070494215,71.93480435347755,-173.89649627485608,0.5841064453125,0.413818359375,0.41876220703125,-0.55877685546875,2.880927494580967,72.11365947788586,-85.3669015755477,3.130500494884239,,,,2,0,2,3
1788945041.8860931,130080661.0,-9.34765625,0.1484375,3.03125,-0.037109375,0.056640625,-0.078125,22.5625,0.5625,-39.1875,22.5625,0.5625,-39.1875,-0.02209776073852923,-0.5878618079264298,-0.0035079671920761604,0.8086518892069637,3.762336535403533,71.97214274682011,-174.13680935887166,0.58380126953125,0.41375732421875,0.419189453125,-0.558837890625,2.7275566458477756,72.15578600973399,-85.51706819575753,3.0512134637767665,,,,2,0,2,3
1788945041.888097,130084238.0,-9.3125,0.0703125,3.0703125,-0.037109375,0.056640625,-0.078125,22.5625,0.5625,-39.1875,22.5625,0.5625,-39.1875,-0.021933857642471924,-0.5878974422396076,-0.0037806612253925777,0.8086292165744111,3.6466010302297356,71.9798803860094,-174.2436405648783,0.58380126953125,0.41375732421875,0.419189453125,-0.558837890625,2.7275566458477756,72.15578600973399,-85.51706819575753,3.0166091253697953,,,,2,0,2,3
1788945041.894111,130088674.0,-9.31640625,0.0703125,3.109375,-0.033203125,0.068359375,-0.076171875,22.6875,-1.625,-38.8125,22.6875,-1.625,-38.8125,-0.02177579078470399,-0.5879834192497579,-0.003740143887376875,0.8085711625743067,3.627494202695898,71.99244532873199,-174.27907852428729,0.58355712890625,0.41363525390625,0.4195556640625,-0.55889892578125,2.5807009262643748,72.18137964585254,-85.65128270889363,3.0866601152255475,,,,2,0,2,3
1788945041.8971188,130092780.0,-9.2734375,0.03125,3.0703125,-0.025390625,0.06640625,-0.072265625,22.6875,-1.625,-38.8125,22.6875,-1.625,-38.8125,-0.021609703748301394,-0.5880669865453964,-0.0036878208738986137,0.8085150833574655,3.61004750282199,72.00462225911565,-174.31448134704337,0.58355712890625,0.41363525390625,0.4195556640625,-0.55889892578125,2.5807009262643748,72.18137964585254,-85.65128270889363,3.0895555534359116,,,,2,0,2,3
1788945041.8971188,130096563.0,-9.2734375,-0.0078125,3.0703125,-0.02734375,0.064453125,-0.072265625,22.6875,-1.625,-38.8125,22.6875,-1.625,-38.8125,-0.021443511877922237,-0.588138694614919,-0.0036508829718174506,0.8084675149618114,3.587508485786084,72.01523179119336,-174.35371760759273,0.583251953125,0.41357421875,0.41998291015625,-0.55889892578125,2.435749495965167,72.21400350078581,-85.77633101052992,3.23633616304568,,,,2,0,2,3
1788945041.8971188,130100269.0,-9.31640625,-0.08203125,3.0703125,-0.021484375,0.0703125,-0.064453125,21.375,-1.5,-32.5,21.375,-1.5,-32.5,-0.02126435242281796,-0.5882204477452133,-0.0036102355503315653,0.8084129503970914,3.563579026097397,72.02729011505163,-174.39571617378311,0.583251953125,0.41357421875,0.41998291015625,-0.55889892578125,2.435749495965167,72.21400350078581,-85.77633101052992,3.2377713666280536,,,,2,0,3,3
1788945041.91096,130106129.0,-9.3125,-0.04296875,2.9921875,-0.01171875,0.07421875,-0.0546875,21.375,-1.5,-32.5,21.375,-1.5,-32.5,-0.021010733770033416,-0.5884129521721216,-0.0034824913366930652,0.8082800375096635,3.5534243107092687,72.05472336734752,-174.4372370542911,0.5830078125,0.41357421875,0.42034912109375,-0.55889892578125,2.3258526529267236,72.2556797623962,-85.88374844754391,3.2352156181294247,,,,2,0,3,3
1788945041.912913,130110535.0,-9.3125,-0.08203125,3.03125,-0.009765625,0.06640625,-0.046875,19.875,2.0625,-31.0625,19.875,2.0625,-31.0625,-0.020897769421159926,-0.5885296231814043,-0.003779917634631526,0.8081966828030474,3.4436361120494228,72.07372638833925,-174.53194405562402,0.5830078125,0.41357421875,0.42034912109375,-0.55889892578125,2.3258526529267236,72.2556797623962,-85.88374844754391,3.1983024652750864,,,,2,0,3,3
1788945041.912913,130112388.0,-9.3125,-0.04296875,2.9921875,-0.009765625,0.06640625,-0.046875,19.875,2.0625,-31.0625,19.875,2.0625,-31.0625,-0.02085270707853268,-0.588582676418874,-0.003905364777340903,0.8081586142293157,3.3979658718881525,72.0822601944848,-174.57104313849402,0.5830078125,0.41357421875,0.42034912109375,-0.55889892578125,2.3258526529267236,72.2556797623962,-85.88374844754391,3.18272824101754,,,,2,0,3,3
1788945041.91096,130119471.0,-9.34765625,-0.12109375,2.9921875,-0.009765625,0.060546875,-0.041015625,19.875,2.0625,-31.0625,19.875,2.0625,-31.0625,-0.020680258386077986,-0.5887706932665155,-0.004368798359075943,0.8080237071178354,3.227326898879397,72.11261493632115,-174.7178948074089,0.582763671875,0.41363525390625,0.42071533203125,-0.558837890625,2.2392996025822325,72.30072512780622,-85.96444135262729,3.1438218161144094,,,,2,0,3,3
1788945041.9196992,130125630.0,-9.38671875,-0.08203125,2.953125,0.0,0.064453125,-0.037109375,19.6875,1.8125,-32.375,19.6875,1.8125,-32.375,-0.020522963715495477,-0.5889641036698066,-0.004736668043847359,0.8078846802140737,3.0884585179086317,72.14295695200714,-174.83957408759082,0.582763671875,0.41363525390625,0.42071533203125,-0.558837890625,2.2392996025822325,72.30072512780622,-85.96444135262729,3.0972000262473713,,,,2,0,3,3
1788945041.9248614,130130513.0,-9.38671875,-0.08203125,3.03125,0.009765625,0.0625,-0.03125,19.6875,1.8125,-32.375,19.6875,1.8125,-32.375,-0.020395991730477184,-0.5890867195738689,-0.005004259592523344,0.8077968790042201,2.98383098771785,72.16247176115517,-174.9327214921908,0.58258056640625,0.4136962890625,0.42095947265625,-0.55877685546875,2.186139292518423,72.32865928564905,-86.00911251676062,3.1364722774798977,,,,2,0,3,3
1788945041.9287965,130131566.0,-9.38671875,-0.04296875,2.953125,0.00390625,0.0546875,-0.01953125,19.6875,1.8125,-32.375,19.6875,1.8125,-32.375,-0.020377157021731762,-0.5891156946597702,-0.005060275431634446,0.8077758744786847,2.963712553593394,72.16699100616968,-174.94980273224527,0.58258056640625,0.4136962890625,0.42095947265625,-0.55877685546875,2.186139292518423,72.32865928564905,-86.00911251676062,3.1295507358308767,,,,2,0,3,3
1788945041.9268434,130135396.0,-9.42578125,-0.0078125,2.87890625,0.00390625,0.0546875,-0.01953125,19.6875,1.8125,-32.375,19.6875,1.8125,-32.375,-0.02031608272474621,-0.5892456168932877,-0.005252613396256376,0.8076814160343665,2.8963093360530636,72.18679123709728,-175.0064947831326,0.58258056640625,0.4136962890625,0.42095947265625,-0.55877685546875,2.186139292518423,72.32865928564905,-86.00911251676062,3.105449896885127,,,,2,0,3,3
1788945041.9446838,130139179.0,-9.42578125,0.109375,2.87890625,0.005859375,0.048828125,-0.01171875,19.75,1.375,-32.125,19.75,1.375,-32.125,-0.020285516250338524,-0.5893881193312297,-0.005409256530472518,0.8075771681798842,2.846685668401619,72.2080317419286,-175.04583741548706,0.5823974609375,0.413818359375,0.421142578125,-0.55877685546875,2.149394834269981,72.36560461473113,-86.06124153961149,3.0041985911569755,,,,2,0,3,3
1788945041.9446838,130143685.0,-9.5,0.1484375,2.87890625,0.0078125,0.0390625,-0.01171875,19.75,1.375,-32.125,19.75,1.375,-32.125,-0.020263175060494704,-0.5895533732787303,-0.00557209317793237,0.8074559898655495,2.7976019838617265,72.23249663504974,-175.08346716694368,0.5823974609375,0.413818359375,0.421142578125,-0.55877685546875,2.149394834269981,72.36560461473113,-86.06124153961149,2.9827474217958683,,,,2,0,3,3
1788945041.9446838,130146868.0,-9.5390625,0.1484375,2.83984375,0.01171875,0.041015625,-0.0078125,19.75,1.375,-32.125,19.75,1.375,-32.125,-0.020248088026550707,-0.5896807119687929,-0.005663092557245684,0.8073627451436773,2.7706150741185964,72.25112967691604,-175.10428125146234,0.582275390625,0.4139404296875,0.4212646484375,-0.5587158203125,2.1439897782715893,72.38930480877873,-86.06897268073139,2.987417691273254,,,,2,0,3,3
1788945041.9446838,130151174.0,-9.54296875,0.1875,2.87890625,0.005859375,0.029296875,-0.013671875,19.75,1.375,-32.125,19.75,1.375,-32.125,-0.020244286893290574,-0.5898302400443811,-0.005805242381629439,0.8072525973561562,2.731246746460552,72.27317486346305,-175.13236575025883,0.582275390625,0.4139404296875,0.4212646484375,-0.5587158203125,2.1439897782715893,72.38930480877873,-86.06897268073139,2.9689410270457697,,,,2,0,3,3
1788945041.9446838,130155127.0,-9.5390625,0.109375,2.83984375,0.005859375,0.029296875,-0.013671875,19.75,1.375,-32.125,19.75,1.375,-32.125,-0.020211761699873477,-0.5899642560045678,-0.00594434639562929,0.8071544623378435,2.685874453922386,72.29309901961784,-175.16905436149196,0.582275390625,0.4139404296875,0.4212646484375,-0.5587158203125,2.1439897782715893,72.38930480877873,-86.06897268073139,2.950841647264343,,,,2,0,3,3
1788945041.9605238,130160339.0,-9.5390625,0.109375,2.83984375,0.01171875,0.01953125,-0.01953125,19.8125,0.0,-38.0,19.8125,0.0,-38.0,-0.02011041430428872,-0.5901379757751016,-0.005825196164729562,0.8070308593072619,2.7047720063748044,72.31733234112156,-175.16831200056973,0.5821533203125,0.41400146484375,0.42132568359375,-0.5587158203125,2.1268415902820874,72.39620295343755,-86.0853206336228,3.0514743961208497,,,,2,0,3,3
1788945041.9605238,130166399.0,-9.578125,0.03125,2.83984375,0.01171875,0.00390625,-0.017578125,23.0,-0.25,-38.625,23.0,-0.25,-38.625,-0.019958687059255454,-0.5903055121445345,-0.005714440885745461,0.8069128814859834,2.7097314343663563,72.34091503958118,-175.1849479142335,0.58209228515625,0.41400146484375,0.42138671875,-0.5587158203125,2.1050738357887906,72.3999212469958,-86.10323967119297,3.108440398348036,,,,2,0,2,3
1788945041.9605238,130170952.0,-9.54296875,0.0703125,2.83984375,0.01171875,0.00390625,-0.017578125,23.0,-0.25,-38.625,23.0,-0.25,-38.625,-0.0198606074058355,-0.5904267084638161,-0.005606105138318141,0.8068273853751083,2.72450677586437,72.35777185079168,-175.18714921811772,0.58209228515625,0.41400146484375,0.42138671875,-0.5587158203125,2.1050738357887906,72.3999212469958,-86.10323967119297,3.118587398866163,,,,2,0,2,3
1788945041.9763806,130175235.0,-9.5390625,0.0703125,2.80078125,0.015625,-0.001953125,-0.015625,23.0,-0.25,-38.625,23.0,-0.25,-38.625,-0.019771797664312734,-0.5905356765468791,-0.005508607478984336,0.8067504855815606,2.737690418077901,72.37293268964817,-175.1892875429792,0.58209228515625,0.41400146484375,0.42138671875,-0.5587158203125,2.1050738357887906,72.3999212469958,-86.10323967119297,3.1278430520641973,,,,2,0,2,3
1788945041.9763806,130178718.0,-9.58203125,0.0703125,2.87890625,0.021484375,-0.01171875,-0.013671875,22.3125,-0.1875,-38.6875,22.3125,-0.1875,-38.6875,-0.019684656153937354,-0.5906037365984728,-0.005402666528991644,0.8067035092414062,2.7525867835335536,72.38224317507874,-175.1902517785747,0.58203125,0.41400146484375,0.42138671875,-0.558837890625,2.0760134518235014,72.4093290749789,-86.15578534230745,2.9995353061337475,,,,2,0,2,3
1788945041.9763806,130182824.0,-9.5390625,0.109375,2.87890625,0.029296875,-0.015625,-0.017578125,22.3125,-0.1875,-38.6875,22.3125,-0.1875,-38.6875,-0.019584351983541526,-0.5906700362815744,-0.005244525517292283,0.8066584508629452,2.780415544850134,72.39104058011742,-175.18364199245931,0.58203125,0.41400146484375,0.42138671875,-0.558837890625,2.0760134518235014,72.4093290749789,-86.15578534230745,3.016722722814055,,,,2,0,2,3
1788945041.9903436,130186007.0,-9.5,0.109375,2.83984375,0.021484375,-0.02734375,-0.021484375,22.3125,-0.1875,-38.6875,22.3125,-0.1875,-38.6875,-0.019511108650465923,-0.5907113782942196,-0.005146520775799901,0.8066305830532818,2.7952005870409318,72.39656826792148,-175.18291568479978,0.58197021484375,0.41400146484375,0.4212646484375,-0.5589599609375,2.0713931575843576,72.39181086964138,-86.1707033753117,3.0981186204078495,,,,2,0,2,3
1788945041.9853306,130193789.0,-9.421875,0.03125,2.953125,0.01953125,-0.03125,-0.01953125,22.375,0.75,-38.25,22.375,0.75,-38.25,-0.01922621779036034,-0.5906809210514891,-0.005453828784145022,0.8066577079572448,2.6368288622849443,72.39501352697411,-175.3394447983635,0.58197021484375,0.41400146484375,0.4212646484375,-0.5589599609375,2.0713931575843576,72.39181086964138,-86.1707033753117,3.061128636045709,,,,2,0,2,3
1788945041.9922967,130198825.0,-9.34765625,-0.04296875,2.9921875,0.009765625,-0.041015625,-0.01953125,20.4375,-0.9375,-32.25,20.4375,-0.9375,-32.25,-0.019049127176368016,-0.5905771523365728,-0.005245651975503268,0.8067392645875091,2.657692047765799,72.3796862848359,-175.35013488000985,0.5819091796875,0.4139404296875,0.42120361328125,-0.55914306640625,2.0307272219543226,72.38440656982533,-86.23173413210264,3.016576874326191,,,,2,0,3,3
1788945042.0087383,130201955.0,-9.34375,-0.04296875,2.91796875,0.017578125,-0.041015625,-0.017578125,20.4375,-0.9375,-32.25,20.4375,-0.9375,-32.25,-0.01893268073246391,-0.5905473548516387,-0.005107140913640783,0.8067647069559399,2.6730323837775414,72.37505067391331,-175.35569078288245,0.5819091796875,0.4139404296875,0.42120361328125,-0.55914306640625,2.0307272219543226,72.38440656982533,-86.23173413210264,3.032171817128529,,,,2,0,3,3
1788945042.0123756,130206714.0,-9.34375,-0.04296875,2.83984375,0.029296875,-0.048828125,-0.005859375,20.4375,-0.9375,-32.25,20.4375,-0.9375,-32.25,-0.0187752261679416,-0.590531913245309,-0.004885427157375568,0.806781062570675,2.7049955174099716,72.37211176417803,-175.35481491178868,0.58197021484375,0.413818359375,0.4210205078125,-0.55926513671875,2.0292770295053466,72.34711203489726,-86.23083361968031,3.152011985529765,,,,2,0,3,3
1788945042.0182054,130214297.0,-9.34765625,-0.16015625,2.953125,0.033203125,-0.056640625,0.0,19.6875,0.4375,-32.8125,19.6875,0.4375,-32.8125,-0.018466382452714827,-0.5903706525029668,-0.005076568282667462,0.80690502157119,2.5731922113767642,72.35134976628669,-175.4962165510198,0.58197021484375,0.413818359375,0.4210205078125,-0.55926513671875,2.0292770295053466,72.34711203489726,-86.23083361968031,3.1298301856084776,,,,2,0,3,3
1788945042.0142703,130221133.0,-9.34765625,-0.16015625,2.953125,0.037109375,-0.052734375,0.005859375,19.8125,1.9375,-31.6875,19.8125,1.9375,-31.6875,-0.01833067540285862,-0.5902393658041487,-0.005291467609177474,0.8070027743229465,2.473862658597531,72.33435371334468,-175.5890068577137,0.58203125,0.41375732421875,0.4207763671875,-0.5594482421875,2.0444186016831583,72.31887838434604,-86.2372130047064,3.047562014985119,,,,2,0,3,3
1788945042.0182054,130221410.0,-9.34765625,-0.19921875,2.91796875,0.041015625,-0.052734375,0.015625,19.8125,1.9375,-31.6875,19.8125,1.9375,-31.6875,-0.018325666372313847,-0.5902346398521293,-0.0052987872487284746,0.8070062965828274,2.470389528640791,72.33373924513833,-175.5922888739683,0.58203125,0.41375732421875,0.4207763671875,-0.5594482421875,2.0444186016831583,72.31887838434604,-86.2372130047064,3.0467311610430046,,,,2,0,3,3
1788945042.0162523,130225439.0,-9.34375,-0.234375,2.953125,0.041015625,-0.052734375,0.015625,19.8125,1.9375,-31.6875,19.8125,1.9375,-31.6875,-0.018249018288947448,-0.5901570728683821,-0.0054054944177133035,0.807064051550441,2.41874165230802,72.3235576449836,-175.6414447276392,0.58203125,0.41375732421875,0.4207763671875,-0.5594482421875,2.0444186016831583,72.31887838434604,-86.2372130047064,3.034692824854156,,,,2,0,3,3
1788945042.0336905,130230199.0,-9.31640625,-0.234375,2.953125,0.044921875,-0.052734375,0.033203125,20.4375,2.375,-31.5625,20.4375,2.375,-31.5625,-0.01819609852984223,-0.5900651476739726,-0.005501825994484478,0.8071318067140656,2.3751984407474525,72.31120499571631,-175.68139497673855,0.58209228515625,0.41375732421875,0.42047119140625,-0.55963134765625,2.0857619492632438,72.29015223256488,-86.22433676401285,2.955749054540219,,,,2,0,3,3
1788945042.0336905,130234105.0,-9.3125,-0.2734375,2.91796875,0.056640625,-0.056640625,0.0390625,20.4375,2.375,-31.5625,20.4375,2.375,-31.5625,-0.018145102987649084,-0.5899901624127721,-0.005554031506057934,0.8071874108456771,2.345995510148997,72.30100616380504,-175.71047174542664,0.58209228515625,0.41375732421875,0.42047119140625,-0.55963134765625,2.0857619492632438,72.29015223256488,-86.22433676401285,2.949945935160826,,,,2,0,3,3
1788945042.045415,130240818.0,-9.2734375,-0.19921875,2.953125,0.083984375,-0.0625,0.064453125,20.5,1.1875,-33.3125,20.5,1.1875,-33.3125,-0.018024091746430635,-0.5898287995915822,-0.005504290361262404,0.8073083810271565,2.3299563546304496,72.27822879354386,-175.74045563387352,0.58221435546875,0.41387939453125,0.4200439453125,-0.5596923828125,2.2081243212108355,72.25107488607378,-86.12090258889395,3.0151975712838737,,,,2,0,3,3
1788945042.047368,130241294.0,-9.34765625,-0.08203125,2.9921875,0.083984375,-0.0625,0.064453125,20.5,1.1875,-33.3125,20.5,1.1875,-33.3125,-0.018017349190880983,-0.589816882238857,-0.005501440641388134,0.8073172577772864,2.3290111198989947,72.27654468675392,-175.7421831959747,0.58221435546875,0.41387939453125,0.4200439453125,-0.5596923828125,2.2081243212108355,72.25107488607378,-86.12090258889395,3.0155706461367227,,,,2,0,3,3
1788945042.0505834,130245577.0,-9.3828125,0.0703125,2.9921875,0.076171875,-0.064453125,0.05859375,20.5,1.1875,-33.3125,20.5,1.1875,-33.3125,-0.018004988432807303,-0.5897147514439828,-0.0055064392586968635,0.8073921051432112,2.3220681720803347,72.26213664069944,-175.74969216045986,0.58233642578125,0.4140625,0.4195556640625,-0.559814453125,2.3466174642120943,72.22101194885084,-86.0252737863093,2.9152159755311073,,,,2,0,3,3
1788945042.0528402,130251060.0,-9.3828125,0.1875,3.03125,0.068359375,-0.06640625,0.060546875,20.0625,0.5,-32.125,20.0625,0.5,-32.125,-0.0181613518048617,-0.5894897536678969,-0.00505973927542831,0.8075558151977156,2.4859927153448322,72.22741258021973,-175.60949101319162,0.58233642578125,0.4140625,0.4195556640625,-0.559814453125,2.3466174642120943,72.22101194885084,-86.0252737863093,2.9680849078738483,,,,2,0,3,3
1788945042.0528402,130256919.0,-9.421875,0.1484375,3.03125,0.0703125,-0.064453125,0.05859375,20.0625,0.5,-32.125,20.0625,0.5,-32.125,-0.018316376028740665,-0.5892078800641679,-0.004668675496871345,0.8077603530184976,2.63061285480447,72.18485534283731,-175.48412219522254,0.58251953125,0.4141845703125,0.4190673828125,-0.5599365234375,2.4800209826625017,72.18774907511484,-85.93178201150211,2.8702927774039444,,,,2,0,3,3
1788945042.066827,130261325.0,-9.38671875,0.109375,3.03125,0.060546875,-0.06640625,0.052734375,20.0625,0.5,-32.125,20.0625,0.5,-32.125,-0.018255274733087957,-0.5890255062543347,-0.00466132410640282,0.80789477655436,2.6142123350225157,72.15919617765799,-175.50607177937127,0.58251953125,0.4141845703125,0.4190673828125,-0.5599365234375,2.4800209826625017,72.18774907511484,-85.93178201150211,2.8723641695912163,,,,2,0,3,3
1788945042.0688863,130264979.0,-9.421875,0.109375,3.03125,0.060546875,-0.06640625,0.052734375,20.0625,0.5,-32.125,20.0625,0.5,-32.125,-0.018194094325291555,-0.5889222817253573,-0.004679327755076307,0.8079713020342009,2.5924230272642994,72.14488229229634,-175.53136613993425,0.58251953125,0.4141845703125,0.4190673828125,-0.5599365234375,2.4800209826625017,72.18774907511484,-85.93178201150211,2.8709402705857934,,,,2,0,3,3
1788945042.075886,130269338.0,-9.421875,0.109375,2.953125,0.048828125,-0.07421875,0.05859375,22.3125,3.625,-37.9375,22.3125,3.625,-37.9375,-0.01825157838375103,-0.5888210985181772,-0.0047287752355868835,0.8080434595435569,2.5873265775214476,72.13065076690282,-175.52765386143682,0.58270263671875,0.414306640625,0.4185791015625,-0.56005859375,2.6129303306174703,72.15449047449135,-85.83890198755478,2.7125422512735047,,,,2,0,3,3
1788945042.0788693,130272468.0,-9.4609375,0.0703125,3.03125,0.05078125,-0.078125,0.06640625,22.3125,3.625,-37.9375,22.3125,3.625,-37.9375,-0.018295924245224,-0.5887327042119757,-0.004757077024883519,0.8081066961518428,2.586071373631582,72.11815588841236,-175.5229169934633,0.58270263671875,0.414306640625,0.4185791015625,-0.56005859375,2.6129303306174703,72.15449047449135,-85.83890198755478,2.710068926984533,,,,2,0,3,3
1788945042.081332,130280527.0,-9.5,0.1875,3.03125,0.056640625,-0.078125,0.064453125,22.3125,3.625,-37.9375,22.3125,3.625,-37.9375,-0.018434118240610652,-0.5885160409121977,-0.004809680654896939,0.8082610468442245,2.5944889251054173,72.08734736425441,-175.49876636143662,0.5828857421875,0.41436767578125,0.41802978515625,-0.56011962890625,2.752517111074143,72.08578888784211,-85.7026605873131,2.9484626635704627,,,,2,0,3,3
1788945042.0816357,130285786.0,-9.5,0.22265625,3.03125,0.046875,-0.083984375,0.068359375,23.0,-0.25,-38.625,23.0,-0.25,-38.625,-0.01854033675652635,-0.5883696011134202,-0.004343680420891869,0.8083678623244437,2.753576390491351,72.0636505620693,-175.3691340877306,0.5828857421875,0.41436767578125,0.41802978515625,-0.56011962890625,2.752517111074143,72.08578888784211,-85.7026605873131,3.00143492639165,,,,2,0,2,3
1788945042.0835888,130289069.0,-9.4609375,0.22265625,3.03125,0.044921875,-0.083984375,0.06640625,23.0,-0.25,-38.625,23.0,-0.25,-38.625,-0.01860486907727942,-0.5882747015354497,-0.004056184390910848,0.8084369373972107,2.851184950241507,72.04834607568122,-175.28977875700278,0.5831298828125,0.41436767578125,0.41754150390625,-0.56024169921875,2.8654071059784925,72.03664434223606,-85.6135450057096,2.963206675610268,,,,2,0,2,3
1788945042.10038,130291999.0,-9.4609375,0.1875,3.03125,0.04296875,-0.08984375,0.06640625,23.0,-0.25,-38.625,23.0,-0.25,-38.625,-0.01865045012582788,-0.5881866102152942,-0.003801859927610733,0.8085012171509925,2.934771719546528,72.03423593128437,-175.22328223264537,0.5831298828125,0.41436767578125,0.41754150390625,-0.56024169921875,2.8654071059784925,72.03664434223606,-85.6135450057096,2.9923707545531615,,,,2,0,2,3
1788945042.0984268,130296558.0,-9.421875,0.1484375,3.03125,0.044921875,-0.091796875,0.0625,23.0,-0.25,-38.625,23.0,-0.25,-38.625,-0.018677752814264842,-0.588040641055117,-0.0034078763702518776,0.8086085161534852,3.0542985396166427,72.0111516796014,-175.1337820203853,0.58343505859375,0.41436767578125,0.41705322265625,-0.560302734375,2.9965157061169,71.98760186006324,-85.49979506695045,2.9583949991718943,,,,2,0,2,3
1788945042.106369,130300464.0,-9.46484375,0.1484375,3.03125,0.041015625,-0.09765625,0.0625,21.5625,-0.625,-33.0,21.5625,-0.625,-33.0,-0.018712205630669762,-0.5879120766164567,-0.0030772778730454734,0.8087025249681451,3.1567130189572374,71.99084482274169,-175.0556153346633,0.58343505859375,0.41436767578125,0.41705322265625,-0.560302734375,2.9965157061169,71.98760186006324,-85.49979506695045,2.9967018587414054,,,,2,0,3,3
1788945042.104416,130306524.0,-9.38671875,0.109375,3.03125,0.0390625,-0.099609375,0.068359375,21.5625,-0.625,-33.0,21.5625,-0.625,-33.0,-0.018738737579699703,-0.5876885889503812,-0.002561262295960279,0.8088661335887912,3.3095092243440014,71.95597321111231,-174.94289655537665,0.583740234375,0.41436767578125,0.41656494140625,-0.5604248046875,3.1175501008325224,71.9479280521701,-85.41312149391555,2.8210749013031005,,,,2,0,3,3
1788945042.1177113,130310730.0,-9.34375,0.109375,3.0703125,0.04296875,-0.103515625,0.076171875,19.75,0.9375,-32.4375,19.75,0.9375,-32.4375,-0.018791707723826722,-0.587494091390537,-0.0025954844777664704,0.809006073995959,3.30442856997013,71.92849511939242,-174.94075594302487,0.583740234375,0.41436767578125,0.41656494140625,-0.5604248046875,3.1175501008325224,71.9479280521701,-85.41312149391555,2.8185911461764044,,,,2,0,3,3
1788945042.1107452,130312583.0,-9.38671875,0.03125,3.03125,0.04296875,-0.103515625,0.076171875,19.75,0.9375,-32.4375,19.75,0.9375,-32.4375,-0.01880259590688381,-0.587424607830581,-0.002609032834751049,0.8090562313275372,3.3004805833938806,71.91872094790413,-174.9426749203855,0.583740234375,0.41436767578125,0.41656494140625,-0.5604248046875,3.1175501008325224,71.9479280521701,-85.41312149391555,2.8175805420166014,,,,2,0,3,3
1788945042.1157582,130319666.0,-9.34765625,0.0703125,3.0703125,0.044921875,-0.103515625,0.07421875,19.75,0.9375,-32.4375,19.75,0.9375,-32.4375,-0.01885497775514552,-0.5871096739870643,-0.002664154690581642,0.8092834007963099,3.2851520105020815,71.87437553669001,-174.94907314896017,0.58404541015625,0.41436767578125,0.41595458984375,-0.56048583984375,3.2703664160492796,71.87262143480434,-85.26518518678544,2.949209501230743,,,,2,0,3,3
1788945042.1086836,130325825.0,-9.3828125,0.109375,3.0703125,0.05078125,-0.095703125,0.068359375,20.0,2.375,-31.9375,20.0,2.375,-31.9375,-0.018934377763874133,-0.5868837936369956,-0.0027161538115109502,0.8094451955589183,3.2795031966039443,71.84248572118317,-174.94386006939013,0.58404541015625,0.41436767578125,0.41595458984375,-0.56048583984375,3.2703664160492796,71.87262143480434,-85.26518518678544,2.945500452409893,,,,2,0,3,3
1788945042.136309,130330661.0,-9.3828125,0.1484375,3.0703125,0.044921875,-0.1015625,0.072265625,20.0,2.375,-31.9375,20.0,2.375,-31.9375,-0.019022491803485614,-0.5866971503734304,-0.002762308122539487,0.8095782656439825,3.278732825834477,71.81606977451578,-174.93354561916289,0.5843505859375,0.41436767578125,0.4154052734375,-0.56060791015625,3.4014578026607527,71.8198538759741,-85.1623795304374,2.8098104098068486,,,,2,0,3,3
1788945042.138262,130331438.0,-9.42578125,0.109375,3.0703125,0.044921875,-0.1015625,0.072265625,20.0,2.375,-31.9375,20.0,2.375,-31.9375,-0.01903502257627187,-0.5866679979746678,-0.0027696736661564423,0.8095990717482937,3.2782999619796445,71.81195022027447,-174.93233530670858,0.5843505859375,0.41436767578125,0.4154052734375,-0.56060791015625,3.4014578026607527,71.8198538759741,-85.1623795304374,2.8092373833769653,,,,2,0,3,3
1788945042.136309,130336597.0,-9.421875,0.1875,3.0703125,0.052734375,-0.09375,0.06640625,20.0,2.375,-31.9375,20.0,2.375,-31.9375,-0.019116072233361654,-0.5864930082979221,-0.002810359498489384,0.8097237978962404,3.277995562160324,71.78717924440564,-174.92258656564053,0.58465576171875,0.41436767578125,0.41485595703125,-0.56072998046875,3.531809912747546,71.76711109157944,-85.0604578705936,2.6664013069253047,,,,2,0,3,3
1788945042.138262,130340904.0,-9.4609375,0.1875,3.109375,0.0625,-0.095703125,0.0625,19.4375,-0.5,-32.625,19.4375,-0.5,-32.625,-0.019133419508665393,-0.5863275163517454,-0.0024035834983015683,0.809844539780979,3.3967412567267656,71.7611869079851,-174.83573803188872,0.58465576171875,0.41436767578125,0.41485595703125,-0.56072998046875,3.531809912747546,71.76711109157944,-85.0604578705936,2.7166485608068434,,,,2,0,3,3
1788945042.1494992,130347163.0,-9.5390625,0.30078125,3.0703125,0.060546875,-0.095703125,0.060546875,19.0,-0.0625,-33.0,19.0,-0.0625,-33.0,-0.019254403318081523,-0.586162313392789,-0.0018572643395446634,0.8099626910420328,3.5786140170307394,71.73383423098201,-174.68870836985295,0.5848388671875,0.4144287109375,0.414306640625,-0.56085205078125,3.6571848329517422,71.70842491341342,-84.95640484641248,2.8559136756017067,,,,2,0,3,3
1788945042.1514668,130351569.0,-9.5,0.37890625,3.109375,0.06640625,-0.09765625,0.041015625,19.0,-0.0625,-33.0,19.0,-0.0625,-33.0,-0.019324243830252386,-0.5860045326927588,-0.0014785321088525507,0.8100759687873313,3.699901494157895,71.70876894240722,-174.59271406981605,0.5848388671875,0.4144287109375,0.414306640625,-0.56085205078125,3.6571848329517422,71.70842491341342,-84.95640484641248,2.900770305800069,,,,2,0,3,3
1788945042.1445007,130355722.0,-9.46484375,0.4140625,3.14453125,0.06640625,-0.09765625,0.041015625,19.0,-0.0625,-33.0,19.0,-0.0625,-33.0,-0.019397496973699947,-0.5858308943368009,-0.0011245504089520033,0.8102003676486929,3.8137651064699414,71.68157190859858,-174.50182846655247,0.5848388671875,0.4144287109375,0.414306640625,-0.56085205078125,3.6571848329517422,71.70842491341342,-84.95640484641248,2.9430848266239686,,,,2,0,3,3
1788945042.1514668,130359582.0,-9.50390625,0.4140625,3.14453125,0.0625,-0.095703125,0.041015625,19.5,-1.875,-38.3125,19.5,-1.875,-38.3125,-0.01940254379063117,-0.5856841619560745,-0.0007842097809226733,0.8103067251006144,3.9097861544484256,71.6585476205067,-174.43327584705582,0.5850830078125,0.4144287109375,0.41375732421875,-0.56103515625,3.7677799273170853,71.65578952946255,-84.88105377603644,2.8532536138673033,,,,2,0,3,3
1788945042.168978,130362811.0,-9.54296875,0.53125,3.109375,0.060546875,-0.091796875,0.03125,19.5,-1.875,-38.3125,19.5,-1.875,-38.3125,-0.019408226682228327,-0.5855748024898397,-0.0005132141749767186,0.8103858389910618,3.9867284811808563,71.64124266267825,-174.37807211053368,0.5850830078125,0.4144287109375,0.41375732421875,-0.56103515625,3.7677799273170853,71.65578952946255,-84.88105377603644,2.8860776188197823,,,,2,0,3,3
1788945042.1670249,130366594.0,-9.50390625,0.53125,3.14453125,0.056640625,-0.087890625,0.017578125,19.5,-1.875,-38.3125,19.5,-1.875,-38.3125,-0.01939852966719133,-0.5854439094503161,-0.0002163605536918772,0.8104807703594157,4.0670809335725195,71.62078490176685,-174.32283725644547,0.585205078125,0.4144287109375,0.41326904296875,-0.561279296875,3.8391645574487687,71.60704135514418,-84.84751506893005,2.8491400470032264,,,,2,0,3,3
1788945042.168978,130374854.0,-9.5390625,0.60546875,3.14453125,0.05078125,-0.091796875,0.017578125,22.125,-1.0,-37.875,22.125,-1.0,-37.875,-0.019467311219866258,-0.5851505992197971,0.00039422502804219866,0.8106908440418017,4.249747945489406,71.57480492517323,-174.1845450883712,0.585205078125,0.4144287109375,0.41326904296875,-0.561279296875,3.8391645574487687,71.60704135514418,-84.84751506893005,2.9243169890249097,,,,2,0,3,3
1788945042.1868443,130378913.0,-9.578125,0.5703125,3.14453125,0.05078125,-0.087890625,0.0,21.8125,1.5,-39.5,21.8125,1.5,-39.5,-0.019602588068189986,-0.5850410092149436,0.0004619115186527558,0.810766638876772,4.29396125499886,71.55817787181662,-174.1347459517852,0.5853271484375,0.414306640625,0.41278076171875,-0.5615234375,3.8819764794108456,71.53356040725326,-84.81602114648416,3.0920737542565635,,,,2,0,2,3
1788945042.190794,130382819.0,-9.5390625,0.5703125,3.14453125,0.0390625,-0.087890625,-0.013671875,21.8125,1.5,-39.5,21.8125,1.5,-39.5,-0.019726602276454966,-0.5849292034074381,0.0004914946947950023,0.8108442801159365,4.324476664198379,71.54156746038824,-174.09644086143814,0.5853271484375,0.414306640625,0.41278076171875,-0.5615234375,3.8819764794108456,71.53356040725326,-84.81602114648416,3.096755915425134,,,,2,0,2,3
1788945042.192841,130386802.0,-9.5390625,0.5703125,3.18359375,0.033203125,-0.083984375,-0.025390625,21.8125,1.5,-39.5,21.8125,1.5,-39.5,-0.019844274718114317,-0.5847978978047595,0.0004960801434646962,0.8109361117797982,4.345522395830699,71.52242602682901,-174.06606766180803,0.5853271484375,0.4141845703125,0.4124755859375,-0.56182861328125,3.863993208487624,71.4899173318825,-84.86033821190836,3.1054099702255726,,,,2,0,2,3
1788945042.1977956,130390708.0,-9.46484375,0.5703125,3.22265625,0.01953125,-0.076171875,-0.0390625,22.6875,-0.125,-38.3125,22.6875,-0.125,-38.3125,-0.01985640156328101,-0.5846516340346918,0.0006492045277431488,0.8110411633641068,4.38709592815548,71.50065835644958,-174.03602144590195,0.5853271484375,0.4141845703125,0.4124755859375,-0.56182861328125,3.863993208487624,71.4899173318825,-84.86033821190836,3.1233171711551213,,,,2,0,2,3
1788945042.191769,130395638.0,-9.46484375,0.5703125,3.26171875,0.01953125,-0.076171875,-0.0390625,22.6875,-0.125,-38.3125,22.6875,-0.125,-38.3125,-0.01986850896744582,-0.5844506643215823,0.0008347436028160867,0.8111855315084147,4.43587857736083,71.47095382813687,-174.0014121416605,0.5853271484375,0.4141845703125,0.4124755859375,-0.56182861328125,3.863993208487624,71.4899173318825,-84.86033821190836,3.1453506014326704,,,,2,0,2,3
1788945042.2007966,130399021.0,-9.38671875,0.453125,3.30078125,0.015625,-0.07421875,-0.044921875,19.0,2.25,-32.75,19.0,2.25,-32.75,-0.0198560742609581,-0.5843134233542887,0.0006746503634521968,0.8112848479109062,4.381192930027753,71.45289410722722,-174.04393346609308,0.58538818359375,0.4139404296875,0.41229248046875,-0.5621337890625,3.804878531863126,71.45643125697583,-84.94180326918467,3.0010477112660725,,,,2,0,3,3
1788945042.2007966,130402350.0,-9.34375,0.4140625,3.26171875,0.0,-0.072265625,-0.0546875,19.0,2.25,-32.75,19.0,2.25,-32.75,-0.01983861008179438,-0.5841876907605502,0.0004778888782319444,0.8113759567155651,4.315313526648356,71.43673801948421,-174.0950542720828,0.58538818359375,0.4139404296875,0.41229248046875,-0.5621337890625,3.804878531863126,71.45643125697583,-84.94180326918467,2.9790573294909843,,,,2,0,3,3
1788945042.1988435,130406333.0,-9.3125,0.37890625,3.26171875,-0.009765625,-0.068359375,-0.0546875,19.0,2.25,-32.75,19.0,2.25,-32.75,-0.01981947060498641,-0.5840416665325463,0.00022383843765255452,0.8114816512005543,4.231738643923226,71.41813518900246,-174.15929757415236,0.5853271484375,0.41363525390625,0.41217041015625,-0.56243896484375,3.7027951535751455,71.40535736953544,-85.03885788065064,3.1407804590101702,,,,2,0,3,3
1788945042.2171931,130411216.0,-9.2734375,0.37890625,3.3359375,-0.021484375,-0.048828125,-0.05859375,19.8125,-0.9375,-32.3125,19.8125,-0.9375,-32.3125,-0.019768800706750744,-0.583857615122397,0.00029223042659428115,0.8116152995006818,4.234032092049953,71.3920227297444,-174.16672106681668,0.5853271484375,0.41363525390625,0.41217041015625,-0.56243896484375,3.7027951535751455,71.40535736953544,-85.03885788065064,3.149069872303711,,,,2,0,3,3
1788945042.220672,130413993.0,-9.2734375,0.37890625,3.30078125,-0.021484375,-0.048828125,-0.05859375,19.8125,-0.9375,-32.3125,19.8125,-0.9375,-32.3125,-0.01974111958819619,-0.5837588148145254,0.00033793468527864505,0.8116870210394483,4.237778321418861,71.37794542210813,-174.16896891680426,0.5853271484375,0.41363525390625,0.41217041015625,-0.56243896484375,3.7027951535751455,71.40535736953544,-85.03885788065064,3.1545887570128532,,,,2,0,3,3
1788945042.2187188,130420705.0,-9.27734375,0.30078125,3.30078125,-0.0234375,-0.033203125,-0.05859375,19.375,-0.5625,-33.0,19.375,-0.5625,-33.0,-0.01965471530850169,-0.5835240671223704,0.0003929238703398465,0.8118578698675903,4.226826964515495,71.34499503052874,-174.19145660918693,0.5853271484375,0.413330078125,0.4122314453125,-0.56268310546875,3.5857178442138706,71.39278127672317,-85.16270600492068,3.036660202856039,,,,2,0,3,3
1788945042.220672,130421682.0,-9.31640625,0.33984375,3.30078125,-0.0234375,-0.033203125,-0.05859375,19.375,-0.5625,-33.0,19.375,-0.5625,-33.0,-0.01964522004304105,-0.5834924938017506,0.0004045653822152379,0.8118807864048306,4.2270330762348785,71.3405223576884,-174.19297616078953,0.5853271484375,0.413330078125,0.4122314453125,-0.56268310546875,3.5857178442138706,71.39278127672317,-85.16270600492068,3.038184847082889,,,,2,0,3,3
1788945042.2308805,130426441.0,-9.34375,0.33984375,3.30078125,-0.037109375,-0.029296875,-0.05859375,19.375,-0.5625,-33.0,19.375,-0.5625,-33.0,-0.01961840904952634,-0.5833488316812238,0.00043904820696971864,0.8119846463075449,4.2260310335524105,71.32021960769728,-174.1989659315758,0.5853271484375,0.41302490234375,0.412353515625,-0.5628662109375,3.466701949624445,71.38393461276327,-85.27789771196213,2.9589435149747385,,,,2,0,3,3
1788945042.2348156,130429218.0,-9.3125,0.33984375,3.26171875,-0.037109375,-0.029296875,-0.05859375,18.6875,-0.5625,-33.4375,18.6875,-0.5625,-33.4375,-0.019601980392527082,-0.5832730000366194,0.00046863365315771805,0.8120395003788127,4.228328893837687,71.3094346329064,-174.20042264136958,0.5853271484375,0.41302490234375,0.412353515625,-0.5628662109375,3.466701949624445,71.38393461276327,-85.27789771196213,2.963014526161673,,,,2,0,3,3
1788945042.2348156,130433524.0,-9.2734375,0.26171875,3.30078125,-0.048828125,-0.03125,-0.0625,18.6875,-0.5625,-33.4375,18.6875,-0.5625,-33.4375,-0.01955390819237565,-0.5831215213777898,0.0004498179595007786,0.8121494527759403,4.207206280833012,71.28852680163307,-174.22390083942005,0.5853271484375,0.41302490234375,0.412353515625,-0.5628662109375,3.466701949624445,71.38393461276327,-85.27789771196213,2.9618344904289082,,,,2,0,3,3
1788945042.2440739,130441213.0,-9.31640625,0.22265625,3.3359375,-0.0390625,-0.0078125,-0.060546875,20.6875,1.375,-32.0,20.6875,1.375,-32.0,-0.019465932852373455,-0.5829734975963412,-0.0001258009932664356,0.8122579410092498,4.016992959308136,71.27219981565462,-174.37402682097408,0.58526611328125,0.41265869140625,0.41253662109375,-0.56304931640625,3.313765613826801,71.36650728725968,-85.40990550099474,2.977345019327186,,,,2,0,3,3
1788945042.246027,130441989.0,-9.27734375,0.22265625,3.26171875,-0.0390625,-0.0078125,-0.060546875,20.6875,1.375,-32.0,20.6875,1.375,-32.0,-0.019457799365087576,-0.58296173243159,-0.00018688043932873648,0.8122665680919834,3.9972182421641884,71.27100792636084,-174.38945027237455,0.58526611328125,0.41265869140625,0.41253662109375,-0.56304931640625,3.313765613826801,71.36650728725968,-85.40990550099474,2.9702003930760483,,,,2,0,3,3
1788945042.2483954,130445443.0,-9.3125,0.22265625,3.26171875,-0.0390625,-0.0078125,-0.060546875,20.6875,1.375,-32.0,20.6875,1.375,-32.0,-0.01942175224696096,-0.5829130917984966,-0.0004615337247226403,0.812302228198468,3.9085868216415167,71.26622813385411,-174.45847346046202,0.58526611328125,0.41265869140625,0.41253662109375,-0.56304931640625,3.313765613826801,71.36650728725968,-85.40990550099474,2.9380374227703223,,,,2,0,3,3
1788945042.2503486,130449525.0,-9.3125,0.22265625,3.26171875,-0.048828125,-0.013671875,-0.064453125,18.75,-0.4375,-32.75,18.75,-0.4375,-32.75,-0.019363084333058837,-0.5828092345190111,-0.0004647499888687877,0.8123781454051574,3.891823046903181,71.25193205255381,-174.4797580516188,0.585205078125,0.412353515625,0.4127197265625,-0.56317138671875,3.1838605768576045,71.35233962686875,-85.51550649801099,3.0545750735021993,,,,2,0,3,3
1788945042.2503486,130453055.0,-9.34375,0.1484375,3.22265625,-0.0546875,-0.005859375,-0.0625,18.75,-0.4375,-32.75,18.75,-0.4375,-32.75,-0.019262744617964938,-0.5827418655840497,-0.0004754494108591586,0.8124288514776307,3.865571774650966,71.24301333896942,-174.51335095270773,0.585205078125,0.412353515625,0.4127197265625,-0.56317138671875,3.1838605768576045,71.35233962686875,-85.51550649801099,3.053170191945863,,,,2,0,3,3
1788945042.2653072,130460944.0,-9.3828125,0.1484375,3.26171875,-0.0390625,0.005859375,-0.06640625,18.75,0.8125,-38.75,18.75,0.8125,-38.75,-0.019103286624359637,-0.582633662030373,-0.0010825574551806116,0.8125096358681421,3.653501302554639,71.23256816170348,-174.68862888895654,0.58514404296875,0.41204833984375,0.41302490234375,-0.563232421875,3.040425741613873,71.3547282225805,-85.63016455291084,3.038540545836407,,,,2,0,3,3
1788945042.2672603,130461321.0,-9.3828125,0.1484375,3.22265625,-0.0390625,0.005859375,-0.06640625,18.75,0.8125,-38.75,18.75,0.8125,-38.75,-0.01909569492295865,-0.5826307157865481,-0.0011134700220359834,0.8125118852312093,3.6429041043329216,71.23238963832173,-174.69731017583348,0.58514404296875,0.41204833984375,0.41302490234375,-0.563232421875,3.040425741613873,71.3547282225805,-85.63016455291084,3.034967661120148,,,,2,0,3,3
1788945042.2633252,130465704.0,-9.42578125,0.1484375,3.22265625,-0.04296875,0.0078125,-0.064453125,18.75,0.8125,-38.75,18.75,0.8125,-38.75,-0.019014566087655803,-0.5826147697546692,-0.0014849238627902659,0.812524628144485,3.5183065114333965,71.2329027358534,-174.79806281758033,0.58502197265625,0.41180419921875,0.41326904296875,-0.5633544921875,2.904020120761998,71.35658162369737,-85.75150927646698,3.043169989909714,,,,2,0,3,3
1788945042.2672603,130468557.0,-9.42578125,0.109375,3.22265625,-0.04296875,0.0078125,-0.064453125,22.625,-0.6875,-38.6875,22.625,-0.6875,-38.6875,-0.018914940847997705,-0.5826041952106595,-0.0014633014274627013,0.8125345749471765,3.5035713443570993,71.23170815571312,-174.82275392762088,0.58502197265625,0.41180419921875,0.41326904296875,-0.5633544921875,2.904020120761998,71.35658162369737,-85.75150927646698,3.0448884290928326,,,,2,0,2,3
1788945042.2672603,130472963.0,-9.4609375,0.0703125,3.18359375,-0.0390625,0.005859375,-0.060546875,22.625,-0.6875,-38.6875,22.625,-0.6875,-38.6875,-0.01871914179459172,-0.5826390438446911,-0.0014445895511550992,0.812514154633165,3.4695390617694915,71.23732962312187,-174.87441875301965,0.58502197265625,0.41180419921875,0.41326904296875,-0.5633544921875,2.904020120761998,71.35658162369737,-85.75150927646698,3.0450009772322977,,,,2,0,2,3
1788945042.284281,130480522.0,-9.421875,0.03125,3.18359375,-0.025390625,0.013671875,-0.0625,23.0625,0.75,-37.8125,23.0625,0.75,-37.8125,-0.018456963535387342,-0.5826926544318882,-0.0020169068999007253,0.8124804877993874,3.2514823880959827,71.2494914093264,-175.0670314432999,0.58489990234375,0.41162109375,0.41351318359375,-0.56341552734375,2.790283289437409,71.36171545776372,-85.84676579567716,3.062692362480973,,,,2,0,2,3
1788945042.285814,130484829.0,-9.38671875,-0.08203125,3.14453125,-0.02734375,0.009765625,-0.05859375,23.0625,0.75,-37.8125,23.0625,0.75,-37.8125,-0.018298622401254027,-0.5827256765537825,-0.002332355447269567,0.812459541405737,3.128418706790598,71.25664979772424,-175.177208681254,0.58489990234375,0.41162109375,0.41351318359375,-0.56341552734375,2.790283289437409,71.36171545776372,-85.84676579567716,3.0257340499771996,,,,2,0,2,3
1788945042.285814,130488488.0,-9.34765625,-0.0078125,3.14453125,-0.0234375,0.013671875,-0.052734375,22.3125,0.1875,-38.6875,22.3125,0.1875,-38.6875,-0.01811613309781184,-0.5827632641384841,-0.0025500408477555246,0.8124360165477135,3.028674494791578,71.26390722130294,-175.27407984962434,0.58477783203125,0.41143798828125,0.41375732421875,-0.56353759765625,2.667409428972235,71.37582984551034,-85.96768440998824,2.9337783456761954,,,,2,0,2,3
1788945042.285814,130492894.0,-9.34765625,-0.0078125,3.14453125,-0.013671875,0.015625,-0.048828125,22.3125,0.1875,-38.6875,22.3125,0.1875,-38.6875,-0.017886689007560498,-0.5828124311516623,-0.0027853628967762878,0.8124050579636793,2.914324038873084,71.27301577496704,-175.3879697916682,0.58477783203125,0.41143798828125,0.41375732421875,-0.56353759765625,2.667409428972235,71.37582984551034,-85.96768440998824,2.904351028876007,,,,2,0,2,3
1788945042.3032055,130496177.0,-9.3125,-0.0078125,3.14453125,-0.01171875,0.009765625,-0.044921875,22.3125,0.1875,-38.6875,22.3125,0.1875,-38.6875,-0.01771396058141754,-0.5828304227341776,-0.0029514631007915696,0.8123953488305953,2.8308440066154685,71.27709179073291,-175.47200416486876,0.58465576171875,0.41131591796875,0.4139404296875,-0.5635986328125,2.578614510319098,71.38044468019247,-86.04511669846622,2.9613397543284776,,,,2,0,2,3
1788945042.3042057,130500630.0,-9.3125,-0.0078125,3.14453125,-0.01171875,0.009765625,-0.044921875,22.3125,0.1875,-38.6875,22.3125,0.1875,-38.6875,-0.01747583499762001,-0.5828545172367843,-0.0031722274265554235,0.8123823877343509,2.718063227528329,71.28250992275657,-175.58622406153927,0.58465576171875,0.41131591796875,0.4139404296875,-0.5635986328125,2.578614510319098,71.38044468019247,-86.04511669846622,2.934591512125346,,,,2,0,2,3
1788945042.3072066,130504360.0,-9.3125,0.03125,3.109375,-0.009765625,0.01171875,-0.03125,22.3125,0.1875,-38.6875,22.3125,0.1875,-38.6875,-0.01730014514985835,-0.5829294583115371,-0.003299008016667739,0.812331870700958,2.6467723162921284,71.29432216714865,-175.66156064783104,0.58465576171875,0.41131591796875,0.4139404296875,-0.5635986328125,2.578614510319098,71.38044468019247,-86.04511669846622,2.9184781387129464,,,,2,0,2,3
1788945042.314495,130508319.0,-9.27734375,0.03125,3.14453125,-0.001953125,0.009765625,-0.02734375,19.3125,0.875,-32.875,19.3125,0.875,-32.875,-0.01721117259284303,-0.5829415180552254,-0.0035261422704089443,0.8123241522853654,2.5627316321117783,71.29750707501647,-175.73426202347017,0.58453369140625,0.4112548828125,0.4140625,-0.56365966796875,2.5148875940062965,71.38458185736395,-86.1045334423196,2.9594634272033344,,,,2,0,3,3
1788945042.3168645,130512425.0,-9.234375,0.0703125,3.109375,-0.017578125,0.009765625,-0.02734375,19.3125,0.875,-32.875,19.3125,0.875,-32.875,-0.017153906266216233,-0.5829703001409933,-0.003790091569471317,0.8123035195413257,2.4750119571806652,71.30311067846307,-175.80502089506712,0.58453369140625,0.4112548828125,0.4140625,-0.56365966796875,2.5148875940062965,71.38458185736395,-86.1045334423196,2.929207091241687,,,,2,0,3,3
1788945042.3168645,130516485.0,-9.234375,0.0703125,3.109375,-0.0234375,0.005859375,-0.01953125,19.3125,0.875,-32.875,19.3125,0.875,-32.875,-0.017118159581390277,-0.5829920199173796,-0.004051538169218071,0.8122874234922408,2.3922820905230004,71.30761504834716,-175.86922562333186,0.58447265625,0.41119384765625,0.4141845703125,-0.56365966796875,2.4691921623332616,71.38877208774562,-86.13932157786253,2.9603942516053507,,,,2,0,3,3
1788945042.3168645,130519861.0,-9.23828125,-0.0078125,3.109375,-0.0234375,0.005859375,-0.01953125,19.3125,0.875,-32.875,19.3125,0.875,-32.875,-0.017064516657142186,-0.5830069873574598,-0.004263847916999203,0.8122767228996393,2.3198829360499156,71.31094951881146,-175.92860216034825,0.58447265625,0.41119384765625,0.4141845703125,-0.56365966796875,2.4691921623332616,71.38877208774562,-86.13932157786253,2.936516607471601,,,,2,0,3,3
1788945042.3301747,130524468.0,-9.31640625,0.0703125,3.14453125,-0.02734375,0.0,-0.015625,19.3125,0.875,-32.875,19.3125,0.875,-32.875,-0.0170384762797238,-0.5830122479483426,-0.00456366443354131,0.8122718646089028,2.227593975855387,71.31325198548514,-175.99841232466062,0.58447265625,0.41119384765625,0.4141845703125,-0.56365966796875,2.4691921623332616,71.38877208774562,-86.13932157786253,2.903176737368545,,,,2,0,3,3
1788945042.3343544,130528127.0,-9.2734375,0.1484375,3.22265625,-0.01953125,0.0078125,-0.01171875,19.0625,-0.5,-32.6875,19.0625,-0.5,-32.6875,-0.01703744784809056,-0.5829814687071025,-0.004437514932728097,0.812294676195871,2.2632530145440133,71.30829678374721,-175.97318556730553,0.58447265625,0.41107177734375,0.414306640625,-0.56365966796875,2.418908605799074,71.389684349154,-86.17558035709537,2.934898634383093,,,,2,0,3,3
1788945042.3343544,130531557.0,-9.34375,0.0703125,3.109375,-0.0390625,0.01171875,-0.01953125,19.0625,-0.5,-32.6875,19.0625,-0.5,-32.6875,-0.01700563257008468,-0.5830261307728413,-0.004353088997577815,0.8122637440592313,2.2821786617258955,71.31425748899733,-175.9638216135458,0.58447265625,0.41107177734375,0.414306640625,-0.56365966796875,2.418908605799074,71.389684349154,-86.17558035709537,2.943641335114203,,,,2,0,3,3
1788945042.3324013,130535586.0,-9.42578125,0.109375,3.0703125,-0.0390625,0.01171875,-0.01953125,19.0625,-0.5,-32.6875,19.0625,-0.5,-32.6875,-0.016994089998125416,-0.5831081630237087,-0.0042716430824722195,0.8122055307529168,2.3053700693340704,71.32543912917406,-175.94829513623654,0.58447265625,0.41107177734375,0.414306640625,-0.56365966796875,2.418908605799074,71.389684349154,-86.17558035709537,2.951733228036109,,,,2,0,3,3
1788945042.3343544,130539569.0,-9.38671875,0.1484375,3.109375,-0.03515625,0.005859375,-0.017578125,20.125,1.5,-31.375,20.125,1.5,-31.375,-0.01702505212160587,-0.5831532577736728,-0.004538142074670769,0.8121710600696869,2.2355183034647395,71.33302557275312,-175.9937368382336,0.58447265625,0.4110107421875,0.41448974609375,-0.5635986328125,2.379660064013207,71.4067590874475,-86.20327878696098,2.8675696461649354,,,,2,0,3,3
1788945042.3343544,130544075.0,-9.42578125,0.0703125,3.14453125,-0.015625,0.005859375,-0.01953125,20.125,1.5,-31.375,20.125,1.5,-31.375,-0.016999141736961234,-0.5831867734440329,-0.004814504509640757,0.8121459456319852,2.1506163666700684,71.33916822525943,-176.0580860536998,0.58447265625,0.4110107421875,0.41448974609375,-0.5635986328125,2.379660064013207,71.4067590874475,-86.20327878696098,2.8356814966065307,,,,2,0,3,3
1788945042.350405,130547258.0,-9.421875,0.03125,3.14453125,-0.005859375,0.001953125,-0.01953125,20.125,1.5,-31.375,20.125,1.5,-31.375,-0.016963402436750343,-0.5832035717789712,-0.004996894612343926,0.8121335283598704,2.090545686372474,71.34250735341308,-176.1061216753562,0.58447265625,0.410888671875,0.41461181640625,-0.5635986328125,2.329341596166982,71.40767487798512,-86.23959037706086,2.8322339820103433,,,,2,0,3,3
1788945042.350405,130551964.0,-9.34765625,0.03125,3.18359375,-0.009765625,-0.00390625,-0.009765625,20.125,1.5,-31.375,20.125,1.5,-31.375,-0.016935839712592063,-0.5831844486718534,-0.0052620587605090785,0.8121461610437722,2.007315408061634,71.34114256163487,-176.1698354288726,0.58447265625,0.410888671875,0.41461181640625,-0.5635986328125,2.329341596166982,71.40767487798512,-86.23959037706086,2.802187697130197,,,,2,0,3,3
1788945042.350405,130555141.0,-9.34765625,0.109375,3.109375,-0.009765625,-0.00390625,-0.009765625,20.125,1.5,-31.375,20.125,1.5,-31.375,-0.016939958469607018,-0.5832021967198373,-0.005437745084540364,0.8121321730337986,1.9575108569366184,71.34445737367376,-176.20488220110414,0.58447265625,0.410888671875,0.41461181640625,-0.5635986328125,2.329341596166982,71.40767487798512,-86.23959037706086,2.7820042839647594,,,,2,0,3,3
1788945042.3639443,130558900.0,-9.3828125,0.0703125,3.14453125,-0.013671875,-0.005859375,-0.0078125,18.875,1.375,-38.0625,18.875,1.375,-38.0625,-0.016946635636457902,-0.5832108674203274,-0.005652494376266304,0.8121243408313538,1.8966779846457151,71.3466604727107,-176.24753630662283,0.58447265625,0.41082763671875,0.4146728515625,-0.56365966796875,2.2950907345863807,71.41714729398032,-86.28326328033492,2.597690540969499,,,,2,0,3,3
1788945042.3670967,130563407.0,-9.34375,0.03125,3.22265625,-0.009765625,-0.005859375,-0.001953125,18.875,1.375,-38.0625,18.875,1.375,-38.0625,-0.016939762752170736,-0.5831484061831566,-0.005879619089111258,0.8121677233695705,1.8279180850872454,71.33891636518557,-176.29818725158665,0.58447265625,0.41082763671875,0.4146728515625,-0.56365966796875,2.2950907345863807,71.41714729398032,-86.28326328033492,2.5708750325282113,,,,2,0,3,3
1788945042.3737354,130567466.0,-9.3125,-0.0078125,3.18359375,-0.00390625,-0.0078125,-0.001953125,22.9375,2.5625,-38.25,22.9375,2.5625,-38.25,-0.016930659816612424,-0.5831275192092814,-0.006090096105846925,0.8121813589515736,1.7644296045120889,71.33694585828478,-176.34513234790836,0.58447265625,0.4107666015625,0.4146728515625,-0.56365966796875,2.281560223554823,71.4047803786922,-86.28385284507611,2.6763883196936495,,,,2,0,2,3
1788945042.3765728,130570896.0,-9.27734375,-0.04296875,3.18359375,-0.0078125,-0.005859375,0.00390625,22.9375,2.5625,-38.25,22.9375,2.5625,-38.25,-0.016929396363883176,-0.5831097721979405,-0.006266795920488584,0.8121927827646042,1.7124663406517266,71.33523827005668,-176.38268299212666,0.58447265625,0.4107666015625,0.4146728515625,-0.56365966796875,2.281560223554823,71.4047803786922,-86.28385284507611,2.6561441849550422,,,,2,0,2,3
1788945042.3785832,130575249.0,-9.27734375,-0.04296875,3.14453125,-0.0078125,-0.005859375,0.00390625,22.9375,2.5625,-38.25,22.9375,2.5625,-38.25,-0.01692782925259354,-0.5830995842916231,-0.006492254232575822,0.8121983587958738,1.6464317850548413,71.33480270242515,-176.43032888182577,0.58447265625,0.4107666015625,0.4146728515625,-0.56365966796875,2.281560223554823,71.4047803786922,-86.28385284507611,2.6301637618941993,,,,2,0,2,3
1788945042.3849494,130579108.0,-9.3125,-0.08203125,3.109375,-0.00390625,-0.009765625,0.015625,22.8125,-0.0625,-37.625,22.8125,-0.0625,-37.625,-0.01677910192403272,-0.583123301034211,-0.006439971628952215,0.8121848338247927,1.6310395774340596,71.33821640798271,-176.46223873624422,0.58453369140625,0.4107666015625,0.4146728515625,-0.56365966796875,2.2905623171300356,71.41387769271245,-86.28465393369548,2.4509856909443517,,,,2,0,2,3
1788945042.3880565,130582338.0,-9.27734375,-0.04296875,3.14453125,0.00390625,-0.009765625,0.01953125,22.8125,-0.0625,-37.625,22.8125,-0.0625,-37.625,-0.016667676086792517,-0.5830940954716245,-0.006330701298504351,0.8122089550239292,1.6389574878889714,71.33384989971034,-176.47243394482825,0.58453369140625,0.4107666015625,0.4146728515625,-0.56365966796875,2.2905623171300356,71.41387769271245,-86.28465393369548,2.4647361423481504,,,,2,0,2,3
1788945042.3920786,130590674.0,-9.34765625,-0.12109375,3.18359375,0.013671875,0.001953125,0.017578125,22.6875,1.75,-37.75,22.6875,1.75,-37.75,-0.0165929170491358,-0.583084108532611,-0.006644922284113498,0.8122151454438465,1.531865473509677,71.33393533507896,-176.55985995862682,0.58453369140625,0.4107666015625,0.41461181640625,-0.5635986328125,2.3112675227217343,71.39204947403314,-86.24159347360538,2.7248226691068558,,,,2,0,2,3
1788945042.3965106,130594204.0,-9.38671875,-0.16015625,3.14453125,0.013671875,-0.00390625,0.02734375,22.6875,1.75,-37.75,22.6875,1.75,-37.75,-0.016569827047683085,-0.5830875440573964,-0.006766299664696622,0.8122121483858582,1.4918415096057713,71.33497389854048,-176.59181473769584,0.58453369140625,0.4107666015625,0.41461181640625,-0.5635986328125,2.3112675227217343,71.39204947403314,-86.24159347360538,2.711313517889157,,,,2,0,2,3
1788945042.4029162,130598363.0,-9.34765625,-0.12109375,3.14453125,0.021484375,-0.005859375,0.029296875,19.9375,0.4375,-32.8125,19.9375,0.4375,-32.8125,-0.016445077465717415,-0.5830868197153586,-0.006839471710150686,0.8122145909352413,1.4445224932943772,71.33540182972844,-176.6433708265226,0.5845947265625,0.410888671875,0.41448974609375,-0.5635986328125,2.370558792059902,71.40021860901592,-86.20611848001818,2.505539165529763,,,,2,0,3,3
1788945042.4069338,130602469.0,-9.38671875,-0.08203125,3.109375,0.041015625,-0.0078125,0.044921875,19.9375,0.4375,-32.8125,19.9375,0.4375,-32.8125,-0.016336230327511837,-0.5831362792961501,-0.006833254430077725,0.8121813307268412,1.4244947785628899,71.34253962608362,-176.6728678745837,0.5845947265625,0.410888671875,0.41448974609375,-0.5635986328125,2.370558792059902,71.40021860901592,-86.20611848001818,2.5056838296794686,,,,2,0,3,3
1788945042.412965,130606529.0,-9.38671875,-0.0078125,3.14453125,0.0390625,-0.001953125,0.041015625,19.9375,0.4375,-32.8125,19.9375,0.4375,-32.8125,-0.01619061057620392,-0.5831876117198062,-0.006793334970010801,0.8121477231795355,1.406598003611585,71.3498663254274,-176.7060220080629,0.58465576171875,0.4110107421875,0.414306640625,-0.56353759765625,2.450493134160392,71.38655581998812,-86.12764791963914,2.610047122997738,,,,2,0,3,3
1788945042.412965,130609805.0,-9.38671875,0.03125,3.18359375,0.0390625,-0.001953125,0.041015625,19.9375,0.4375,-32.8125,19.9375,0.4375,-32.8125,-0.016079964254796106,-0.5831300577291999,-0.006667682071885078,0.8121922879085302,1.4189904065567793,71.34143743831686,-176.71301302211398,0.58465576171875,0.4110107421875,0.414306640625,-0.56353759765625,2.450493134160392,71.38655581998812,-86.12764791963914,2.6251068684571215,,,,2,0,3,3
1788945042.417922,130614511.0,-9.38671875,0.109375,3.18359375,0.04296875,-0.0078125,0.052734375,19.9375,0.4375,-32.8125,19.9375,0.4375,-32.8125,-0.016169942261138347,-0.5830807479850628,-0.0062916229770214075,0.8122289023278882,1.5461658209209193,71.33277833397645,-176.60930921892432,0.58465576171875,0.4110107421875,0.414306640625,-0.56353759765625,2.450493134160392,71.38655581998812,-86.12764791963914,2.6679904114871236,,,,2,0,3,3
1788945042.4235208,130618471.0,-9.421875,0.03125,3.14453125,0.04296875,-0.0078125,0.0546875,19.125,-0.9375,-32.75,19.125,-0.9375,-32.75,-0.016170380010945784,-0.5830879156949811,-0.0059664978133482215,0.812226201427058,1.6408548008465034,71.33241756691267,-176.5412846105758,0.584716796875,0.4112548828125,0.4140625,-0.5634765625,2.569092979303997,71.384766406289,-86.0305061345119,2.6631155912204827,,,,2,0,3,3
1788945042.427948,130621600.0,-9.38671875,0.109375,3.14453125,0.03515625,-0.009765625,0.0546875,19.125,-0.9375,-32.75,19.125,-0.9375,-32.75,-0.016197834733501476,-0.5830860300755548,-0.005716065962071661,0.8122288090621956,1.719301751746075,71.33102003729155,-176.4811462472486,0.584716796875,0.4112548828125,0.4140625,-0.5634765625,2.569092979303997,71.384766406289,-86.0305061345119,2.691407137629752,,,,2,0,3,3
1788945042.4289954,130625830.0,-9.421875,0.109375,3.18359375,0.03515625,-0.009765625,0.0546875,19.125,-0.9375,-32.75,19.125,-0.9375,-32.75,-0.016233543624589654,-0.5830725347444714,-0.005376960115807866,0.8122400997168009,1.8249801733849835,71.32755546601109,-176.40037572594954,0.584716796875,0.4112548828125,0.4140625,-0.5634765625,2.569092979303997,71.384766406289,-86.0305061345119,2.729863694063544,,,,2,0,3,3
1788945042.4343107,130629813.0,-9.42578125,0.1875,3.18359375,0.033203125,-0.013671875,0.060546875,20.125,-0.875,-31.9375,20.125,-0.875,-31.9375,-0.016306482968794844,-0.5830540393984626,-0.005053822379590009,0.8122539902233046,1.9336482560582369,71.3233321562646,-176.31224479782813,0.5848388671875,0.41143798828125,0.413818359375,-0.56341552734375,2.6830345232039585,71.37967858405409,-85.93495093952933,2.6773765817261537,,,,2,0,3,3
1788945042.4343107,130634219.0,-9.42578125,0.22265625,3.18359375,0.029296875,-0.009765625,0.05859375,20.125,-0.875,-31.9375,20.125,-0.875,-31.9375,-0.01639658639008229,-0.583040501236723,-0.0047066846249096995,0.8122639798687524,2.0529282124012576,71.31960786632666,-176.21406484041844,0.5848388671875,0.41143798828125,0.413818359375,-0.56341552734375,2.6830345232039585,71.37967858405409,-85.93495093952933,2.7174471472217268,,,,2,0,3,3
1788945042.4447923,130637502.0,-9.3828125,0.1875,3.14453125,0.03125,-0.013671875,0.05859375,20.125,-0.875,-31.9375,20.125,-0.875,-31.9375,-0.016453980041343273,-0.5830329566985739,-0.004445252909600632,0.8122697074683309,2.1406102672246203,71.31716790531532,-176.14313370027847,0.5849609375,0.41162109375,0.41357421875,-0.56329345703125,2.8059345340385082,71.3655506966665,-85.81399877458995,2.821938894228013,,,,2,0,3,3
1788945042.4463553,130641808.0,-9.42578125,0.22265625,3.18359375,0.025390625,-0.01171875,0.05859375,20.125,-0.875,-31.9375,20.125,-0.875,-31.9375,-0.01654504313478636,-0.5830161772535479,-0.004112563103784005,0.812281654004967,2.2557521886264316,71.31296002618328,-176.04782550096056,0.5849609375,0.41162109375,0.41357421875,-0.56329345703125,2.8059345340385082,71.3655506966665,-85.81399877458995,2.858888646862823,,,,2,0,3,3
1788945042.4483864,130645838.0,-9.421875,0.22265625,3.22265625,0.025390625,-0.01171875,0.05859375,20.125,-0.875,-31.9375,20.125,-0.875,-31.9375,-0.016629248951901304,-0.5829854487724058,-0.0038025580652258956,0.8123034994083757,2.3625035597674673,71.3068689091664,-175.95960363151536,0.5849609375,0.41162109375,0.41357421875,-0.56329345703125,2.8059345340385082,71.3655506966665,-85.81399877458995,2.8935478481385886,,,,2,0,3,3
1788945042.453515,130649921.0,-9.3828125,0.33984375,3.18359375,0.025390625,-0.00390625,0.05078125,19.5,1.0625,-31.8125,19.5,1.0625,-31.8125,-0.016885882956538385,-0.5829748737866596,-0.0037187134616557945,0.8123061828278771,2.440012522768848,71.30419981770038,-175.86789741041886,0.5850830078125,0.41180419921875,0.41339111328125,-0.563232421875,2.9083001995177775,71.37321276720857,-85.7360937285923,2.7009434965275188,,,,2,0,3,3
1788945042.4587708,130653250.0,-9.42578125,0.33984375,3.14453125,0.0234375,-0.009765625,0.046875,19.5,1.0625,-31.8125,19.5,1.0625,-31.8125,-0.01707621864340083,-0.5830056479224973,-0.0036624184204289163,0.8122803727399953,2.4967483617928354,71.30766675419615,-175.80016156333065,0.5850830078125,0.41180419921875,0.41339111328125,-0.563232421875,2.9083001995177775,71.37321276720857,-85.7360937285923,2.7071886935629212,,,,2,0,3,3
1788945042.464801,130657410.0,-9.38671875,0.30078125,3.109375,0.0390625,-0.009765625,0.044921875,19.5,1.0625,-31.8125,19.5,1.0625,-31.8125,-0.01725492731828524,-0.583066177345806,-0.003614865246571117,0.8122333612132902,2.5493127649241685,71.31538791500522,-175.7368446632516,0.585205078125,0.41192626953125,0.4132080078125,-0.56317138671875,2.996920586836904,71.3685208247494,-85.6589490174263,2.628508484901639,,,,2,0,3,3
1788945042.4667695,130661139.0,-9.34375,0.26171875,3.18359375,0.048828125,-0.005859375,0.033203125,19.5,1.0625,-31.8125,19.5,1.0625,-31.8125,-0.01737916732553444,-0.5830352677267742,-0.003633590607079979,0.8122528166458641,2.5689705954708275,71.31074266487514,-175.70543401776922,0.585205078125,0.41192626953125,0.4132080078125,-0.56317138671875,2.996920586836904,71.3685208247494,-85.6589490174263,2.6266816303320195,,,,2,0,3,3
1788945042.4667695,130665493.0,-9.34375,0.26171875,3.18359375,0.048828125,-0.005859375,0.033203125,19.5,1.0625,-31.8125,19.5,1.0625,-31.8125,-0.017523544703409288,-0.5830001579219636,-0.0036566819920288355,0.8122748118222073,2.5914342796123937,71.30546302899653,-175.66920333576795,0.585205078125,0.41192626953125,0.4132080078125,-0.56317138671875,2.996920586836904,71.3685208247494,-85.6589490174263,2.624494277174882,,,,2,0,3,3
1788945042.4726894,130669152.0,-9.31640625,0.1875,3.109375,0.046875,-0.0078125,0.03125,23.0625,0.3125,-37.875,23.0625,0.3125,-37.875,-0.01756997701052164,-0.5830554628665736,-0.0034164603094914317,0.8122351574071693,2.672228266698815,71.31181037853834,-175.60434063563733,0.585205078125,0.412109375,0.4129638671875,-0.56317138671875,3.0835340356680176,71.35426757047884,-85.58754005470095,2.7407049763750826,,,,2,0,2,3
1788945042.4778187,130672982.0,-9.31640625,0.22265625,3.18359375,0.046875,-0.009765625,0.033203125,23.0625,0.3125,-37.875,23.0625,0.3125,-37.875,-0.017646541078038043,-0.5829931699712574,-0.003151801488712655,0.8122792804831485,2.7632391616796,71.30134111797715,-175.52875176786046,0.585205078125,0.412109375,0.4129638671875,-0.56317138671875,3.0835340356680176,71.35426757047884,-85.58754005470095,2.772077001903697,,,,2,0,2,3
1788945042.4790523,130676941.0,-9.31640625,0.26171875,3.109375,0.05078125,-0.01171875,0.02734375,22.0625,-0.25,-38.375,22.0625,-0.25,-38.375,-0.017670079953587495,-0.5830009332723538,-0.0028483972546229693,0.8122743174021189,2.8563020204561145,71.30067111094209,-175.45867215983137,0.585205078125,0.41229248046875,0.4127197265625,-0.56317138671875,3.17008195536618,71.34002481663511,-85.51621226239189,2.889315094109127,,,,2,0,2,3
1788945042.4833708,130681447.0,-9.34765625,0.30078125,3.14453125,0.05859375,-0.005859375,0.033203125,22.0625,-0.25,-38.375,22.0625,-0.25,-38.375,-0.01771071568361051,-0.5830030008840718,-0.002479966227788905,0.812273156812196,2.9716028706561888,71.29873874960238,-175.37028792369992,0.585205078125,0.41229248046875,0.4127197265625,-0.56317138671875,3.17008195536618,71.34002481663511,-85.51621226239189,2.9302060544151782,,,,2,0,2,3
1788945042.4855301,130685124.0,-9.3828125,0.26171875,3.18359375,0.05859375,-0.005859375,0.033203125,22.0625,-0.25,-38.375,22.0625,-0.25,-38.375,-0.0177326795596755,-0.5829888894779165,-0.0021766672200493027,0.8122836751657346,3.0636555515253105,71.29493145840728,-175.30133181868604,0.585205078125,0.41229248046875,0.4127197265625,-0.56317138671875,3.17008195536618,71.34002481663511,-85.51621226239189,2.9640277628411043,,,,2,0,2,3
1788945042.494505,130688683.0,-9.34375,0.22265625,3.18359375,0.060546875,-0.005859375,0.03125,21.25,0.625,-39.0625,21.25,0.625,-39.0625,-0.017851735300524536,-0.5829188021348706,-0.0020874923161418187,0.8123315998040687,3.112189692779337,71.28409787437427,-175.2503181046122,0.585205078125,0.4124755859375,0.4124755859375,-0.563232421875,3.247562713117839,71.33480469958309,-85.47052809375106,2.8999438188230813,,,,2,0,2,3
1788945042.4980805,130693289.0,-9.34375,0.26171875,3.18359375,0.0625,-0.01171875,0.033203125,21.25,0.625,-39.0625,21.25,0.625,-39.0625,-0.018030091233458986,-0.5828456104851564,-0.001860196905250668,0.8123807295940568,3.2128662919362485,71.27176445396593,-175.15363190677004,0.585205078125,0.4124755859375,0.4124755859375,-0.563232421875,3.247562713117839,71.33480469958309,-85.47052809375106,2.9269071723954743,,,,2,0,2,3
1788945042.5036373,130696372.0,-9.38671875,0.26171875,3.22265625,0.056640625,-0.009765625,0.033203125,20.0,0.9375,-32.4375,20.0,0.9375,-32.4375,-0.01808879054815325,-0.5828018593684985,-0.0018839881537699968,0.8124107575369509,3.2168485945271734,71.26551885110015,-175.1428598094198,0.585205078125,0.4127197265625,0.4122314453125,-0.56329345703125,3.3388126294616605,71.34190483055654,-85.42421368276068,2.7249918393205785,,,,2,0,3,3
1788945042.5056121,130701025.0,-9.3828125,0.30078125,3.22265625,0.056640625,-0.009765625,0.033203125,20.0,0.9375,-32.4375,20.0,0.9375,-32.4375,-0.01822671451527757,-0.5827317958493701,-0.001878244504703737,0.8124579454850124,3.245007425404976,71.25507968433674,-175.10381991932198,0.585205078125,0.4127197265625,0.4122314453125,-0.56329345703125,3.3388126294616605,71.34190483055654,-85.42421368276068,2.7272153919613333,,,,2,0,3,3
1788945042.5087306,130704555.0,-9.42578125,0.26171875,3.109375,0.05078125,-0.01171875,0.029296875,20.0,0.9375,-32.4375,20.0,0.9375,-32.4375,-0.018276402519024685,-0.5827873979455904,-0.001892908830971436,0.8124169119380322,3.252775897554672,71.26279131502379,-175.09078437189984,0.585205078125,0.4127197265625,0.4122314453125,-0.56329345703125,3.3388126294616605,71.34190483055654,-85.42421368276068,2.7250903215545366,,,,2,0,3,3
1788945042.5087306,130708514.0,-9.3828125,0.26171875,3.14453125,0.03515625,-0.017578125,0.0234375,19.0625,-1.5,-33.125,19.0625,-1.5,-33.125,-0.01827394773367506,-0.5827718212767234,-0.0016114898419972788,0.8124287478053239,3.333182217870565,71.25890177405743,-175.03368412102103,0.585205078125,0.41290283203125,0.4119873046875,-0.5633544921875,3.4162192095805244,71.3367015483263,-85.37869987775996,2.6769697094690814,,,,2,0,3,3
1788945042.5176742,130712621.0,-9.42578125,0.26171875,3.109375,0.037109375,-0.013671875,0.029296875,19.0625,-1.5,-33.125,19.0625,-1.5,-33.125,-0.018277530634519375,-0.5827771251745472,-0.0013132219937920288,0.8124253994645845,3.420346655264861,71.25780040067418,-174.9707203591435,0.585205078125,0.41290283203125,0.4119873046875,-0.5633544921875,3.4162192095805244,71.3367015483263,-85.37869987775996,2.7129724590813153,,,,2,0,3,3
1788945042.5154173,130716680.0,-9.42578125,0.26171875,3.109375,0.037109375,-0.01953125,0.0234375,19.0625,-1.5,-33.125,19.0625,-1.5,-33.125,-0.01827052160816262,-0.5827730096600194,-0.0010253182853011368,0.8124289236446364,3.5020073933716556,71.25546131445934,-174.91327618494083,0.585205078125,0.41302490234375,0.41180419921875,-0.5633544921875,3.4775140594038123,71.32296093582475,-85.32563209387477,2.839440550013506,,,,2,0,3,3
1788945042.5176742,130719780.0,-9.5,0.26171875,3.109375,0.037109375,-0.01953125,0.0234375,19.0625,-1.5,-33.125,19.0625,-1.5,-33.125,-0.018264083756193435,-0.5827755527612616,-0.0008079120540318984,0.8124274894576535,3.5636085045052104,71.25448175572517,-174.87005773937017,0.585205078125,0.41302490234375,0.41180419921875,-0.5633544921875,3.4775140594038123,71.32296093582475,-85.32563209387477,2.8645309288368286,,,,2,0,3,3
1788945042.5176742,130724086.0,-9.5,0.22265625,3.14453125,0.04296875,-0.021484375,0.025390625,19.0625,-1.5,-33.125,19.0625,-1.5,-33.125,-0.01823993417787875,-0.5827669443599612,-0.0004898750504367226,0.8124344609782229,3.650252298888922,71.25136145144381,-174.81151163398698,0.585205078125,0.41302490234375,0.41180419921875,-0.5633544921875,3.4775140594038123,71.32296093582475,-85.32563209387477,2.9012790681053477,,,,2,0,3,3
1788945042.535189,130727846.0,-9.5,0.26171875,3.14453125,0.05078125,-0.021484375,0.0234375,20.0,-1.0,-32.9375,20.0,-1.0,-32.9375,-0.01822507151627625,-0.5827660770597785,-0.0002049928361407631,0.8124355384733735,3.7294782720219968,71.24948055153507,-174.7569003581639,0.58526611328125,0.4130859375,0.41156005859375,-0.56341552734375,3.536100889936063,71.30216187336474,-85.28276399375792,2.9312147232161667,,,,2,0,3,3
1788945042.5361898,130731952.0,-9.4609375,0.1875,3.18359375,0.041015625,-0.021484375,0.01953125,20.0,-1.0,-32.9375,20.0,-1.0,-32.9375,-0.018182698851592245,-0.5827438882999093,9.024543845346932e-05,0.81245242443317,3.805258110131943,71.24464590401406,-174.70883899330138,0.58526611328125,0.4130859375,0.41156005859375,-0.56341552734375,3.536100889936063,71.30216187336474,-85.28276399375792,2.9650994039801812,,,,2,0,3,3
1788945042.5381444,130735982.0,-9.4609375,0.1875,3.14453125,0.041015625,-0.021484375,0.01953125,20.0,-1.0,-32.9375,20.0,-1.0,-32.9375,-0.018139349846207506,-0.5827441799816757,0.0003723494197238398,0.8124531039023428,3.8777867299355204,71.24304919158266,-174.663037382063,0.58526611328125,0.4130859375,0.41156005859375,-0.56341552734375,3.536100889936063,71.30216187336474,-85.28276399375792,2.9972646803185206,,,,2,0,3,3
1788945042.5400975,130739964.0,-9.42578125,0.22265625,3.18359375,0.041015625,-0.021484375,0.015625,18.8125,0.5625,-32.3125,18.8125,0.5625,-32.3125,-0.018142420765853564,-0.5827278220672673,0.00026175168638843644,0.8124648112032599,3.845911754976017,71.24145896557009,-174.6855730531213,0.58526611328125,0.4132080078125,0.411376953125,-0.5634765625,3.588322479774358,71.29745517068763,-85.25539387434506,2.9173476205335658,,,,2,0,3,3
1788945042.5460591,130743494.0,-9.3828125,0.1875,3.14453125,0.03515625,-0.025390625,0.015625,18.8125,0.5625,-32.3125,18.8125,0.5625,-32.3125,-0.018123571860635346,-0.582727096313834,0.00016167593680987716,0.8124657784950399,3.813071760896719,71.24209777760937,-174.71174298693145,0.58526611328125,0.4132080078125,0.411376953125,-0.5634765625,3.588322479774358,71.29745517068763,-85.25539387434506,2.9056027736342696,,,,2,0,3,3
1788945042.5550869,130747654.0,-9.34375,0.1875,3.18359375,0.04296875,-0.0234375,0.005859375,18.8125,0.5625,-32.3125,18.8125,0.5625,-32.3125,-0.018077971810718168,-0.5826721195467038,3.68456229828552e-05,0.8125062379333235,3.7657070539043973,71.23538953517127,-174.7525859316215,0.58526611328125,0.41326904296875,0.4111328125,-0.56353759765625,3.637762052348683,71.26771950144183,-85.21171098538336,3.0465280269341593,,,,2,0,3,3
1788945042.557069,130751960.0,-9.34765625,0.1484375,3.14453125,0.03515625,-0.02734375,0.0078125,18.8125,0.5625,-32.3125,18.8125,0.5625,-32.3125,-0.01801643668336051,-0.5826519856687168,-9.973511455601441e-05,0.8125220376447908,3.7128423070906096,71.23371882815472,-174.79928329654507,0.58526611328125,0.41326904296875,0.4111328125,-0.56353759765625,3.637762052348683,71.26771950144183,-85.21171098538336,3.031451529842739,,,,2,0,3,3
1788945042.5590718,130755336.0,-9.34375,0.1875,3.14453125,0.03515625,-0.02734375,0.0078125,18.8125,0.5625,-32.3125,18.8125,0.5625,-32.3125,-0.017992465720759663,-0.5826415371299549,-0.0002066247452589126,0.8125300411026939,3.676660778283335,71.23304003436625,-174.8286528976888,0.58526611328125,0.41326904296875,0.4111328125,-0.56353759765625,3.637762052348683,71.26771950144183,-85.21171098538336,3.0197280933408477,,,,2,0,3,3
1788945042.5650702,130759096.0,-9.34375,0.1875,3.18359375,0.03515625,-0.02734375,0.013671875,18.0,-1.8125,-38.1875,18.0,-1.8125,-38.1875,-0.017936649294753918,-0.5825976896330328,4.689753729913222e-05,0.8125627400065489,3.7368519782914893,71.22551318424803,-174.7938530531321,0.58526611328125,0.413330078125,0.41094970703125,-0.56365966796875,3.6670919252646,71.2597588742388,-85.21074814078419,2.9457597707983076,,,,2,0,3,3
1788945042.5643303,130763602.0,-9.34765625,0.1484375,3.18359375,0.03515625,-0.021484375,0.015625,18.0,-1.8125,-38.1875,18.0,-1.8125,-38.1875,-0.017857961375289163,-0.5825563009040441,0.00034931236806415365,0.8125940729991729,3.8064686121177553,71.21811788460424,-174.75552290877255,0.58526611328125,0.413330078125,0.41094970703125,-0.56365966796875,3.6670919252646,71.2597588742388,-85.21074814078419,2.979854365932317,,,,2,0,3,3
1788945042.573358,130766861.0,-9.34765625,0.1484375,3.18359375,0.037109375,-0.025390625,0.015625,22.3125,-0.6875,-38.75,22.3125,-0.6875,-38.75,-0.017780505488549345,-0.582511777289971,0.0005630215025373562,0.8126275690313729,3.8506033302125178,71.21084419808055,-174.73528833409006,0.58526611328125,0.41339111328125,0.4107666015625,-0.563720703125,3.705320343486625,71.24281319781979,-85.18430581880114,3.051858209952743,,,,2,0,2,3
1788945042.5753644,130771568.0,-9.3125,0.0703125,3.26171875,0.044921875,-0.021484375,0.017578125,22.3125,-0.6875,-38.75,22.3125,-0.6875,-38.75,-0.01762094570788846,-0.5823674071936807,0.0007519054157357664,0.8127343600150759,3.86719165091844,71.19008985678092,-174.7472782957103,0.58526611328125,0.41339111328125,0.4107666015625,-0.563720703125,3.705320343486625,71.24281319781979,-85.18430581880114,3.0734170521072532,,,,2,0,2,3
1788945042.5797956,130776450.0,-9.3828125,0.0703125,3.18359375,0.072265625,-0.017578125,0.013671875,22.3125,-0.6875,-38.75,22.3125,-0.6875,-38.75,-0.01732916517843431,-0.5823403213211179,0.0010285670723048446,0.8127597383283779,3.8857634394822336,71.18589312539773,-174.7753892558636,0.58526611328125,0.41351318359375,0.4105224609375,-0.5638427734375,3.7595404841007687,71.23440626929344,-85.16564262148287,2.9916858673091475,,,,2,0,2,3
1788945042.5837307,130779104.0,-9.3828125,0.1875,2.9921875,0.072265625,-0.017578125,0.013671875,22.75,2.25,-37.4375,22.75,2.25,-37.4375,-0.017292584680900922,-0.5823616048465408,0.0009997793575987697,0.8127453033742189,3.8706353006464993,71.1892432191185,-174.79116396425627,0.58526611328125,0.41351318359375,0.4105224609375,-0.5638427734375,3.7595404841007687,71.23440626929344,-85.16564262148287,2.9881346193137808,,,,2,0,2,3
1788945042.5839121,130782533.0,-9.34375,0.0703125,3.03125,0.05078125,-0.033203125,0.0234375,22.75,2.25,-37.4375,22.75,2.25,-37.4375,-0.017262127923735188,-0.5823511455207475,0.000932355805340437,0.8127535253463192,3.844560761454488,71.1883482490154,-174.81420038197948,0.58526611328125,0.41351318359375,0.4105224609375,-0.5638427734375,3.7595404841007687,71.23440626929344,-85.16564262148287,2.9805214904350485,,,,2,0,2,3
1788945042.5889902,130790869.0,-9.34765625,0.03125,3.14453125,0.02734375,-0.03125,0.021484375,22.0,-1.625,-38.875,22.0,-1.625,-38.875,-0.017044486365559344,-0.5822864498272976,0.0014254048898998048,0.8128037549451628,3.93951915877889,71.17714509374157,-174.7775959675336,0.58526611328125,0.41363525390625,0.4102783203125,-0.56396484375,3.8137113563369516,71.22601358112553,-85.14706356047151,2.9217693930095257,,,,2,0,2,3
1788945042.598785,130795175.0,-9.31640625,0.03125,3.0703125,0.044921875,-0.037109375,0.02734375,22.0,-1.625,-38.875,22.0,-1.625,-38.875,-0.016924298031518147,-0.5822799940949727,0.0016978249519793477,0.8128103678000986,3.99297515171142,71.17507249292433,-174.75638470440595,0.58526611328125,0.41363525390625,0.4102783203125,-0.56396484375,3.8137113563369516,71.22601358112553,-85.14706356047151,2.953435867631508,,,,2,0,2,3
1788945042.6004808,130798835.0,-9.34375,0.0703125,3.109375,0.05859375,-0.0390625,0.03125,18.875,2.125,-33.75,18.875,2.125,-33.75,-0.01690068187747771,-0.5822435768828517,0.0016388130724095237,0.8128370675740944,3.969860417854802,71.1704503213575,-174.7765836790909,0.5853271484375,0.4136962890625,0.40997314453125,-0.56402587890625,3.882796656656879,71.19260339932463,-85.08791878502936,3.0462988020550723,,,,2,0,3,3
1788945042.6004808,130802264.0,-9.34375,0.0703125,3.109375,0.05078125,-0.044921875,0.0390625,18.875,2.125,-33.75,18.875,2.125,-33.75,-0.016897358498523706,-0.5822012560838722,0.0015806596107253595,0.8128675649854218,3.950985916817353,71.16489248616887,-174.79094433100084,0.5853271484375,0.4136962890625,0.40997314453125,-0.56402587890625,3.882796656656879,71.19260339932463,-85.08791878502936,3.0401575271373185,,,,2,0,3,3
1788945042.6004808,130806524.0,-9.38671875,0.03125,3.109375,0.05078125,-0.05078125,0.048828125,18.875,2.125,-33.75,18.875,2.125,-33.75,-0.01690362461285293,-0.5821408996986404,0.0015217931907286059,0.8129107727902799,3.93328010441163,71.15675763801947,-174.80328524707434,0.58544921875,0.413818359375,0.40960693359375,-0.5640869140625,3.9855304908744174,71.1676513616336,-85.01235799090036,2.9661572052273537,,,,2,0,3,3
1788945042.6004808,130810000.0,-9.421875,-0.0078125,3.109375,0.05078125,-0.05078125,0.048828125,18.875,2.125,-33.75,18.875,2.125,-33.75,-0.016903976547570445,-0.582093017518659,0.0014746136023491448,0.8129451396297446,3.918153591969562,71.15032901761737,-174.8144956504684,0.58544921875,0.413818359375,0.40960693359375,-0.5640869140625,3.9855304908744174,71.1676513616336,-85.01235799090036,2.9612346544344437,,,,2,0,3,3
1788945042.6150773,130814707.0,-9.34765625,-0.0078125,3.109375,0.052734375,-0.05078125,0.046875,18.875,2.125,-33.75,18.875,2.125,-33.75,-0.01689805545567939,-0.5820226707053403,0.0014101854832644656,0.8129957428447842,3.8960267301605414,71.14088323151378,-174.8317992008077,0.58544921875,0.413818359375,0.40960693359375,-0.5640869140625,3.9855304908744174,71.1676513616336,-85.01235799090036,2.9545788009522242,,,,2,0,3,3
1788945042.6170304,130818566.0,-9.38671875,-0.0078125,3.109375,0.0546875,-0.060546875,0.0546875,19.5625,0.3125,-33.5625,19.5625,0.3125,-33.5625,-0.01684411795308247,-0.5819725941131755,0.0013976616382155116,0.8130327311575525,3.8796429713901786,71.13418460575737,-174.85157249721524,0.5855712890625,0.4139404296875,0.40924072265625,-0.56414794921875,4.088018798523777,71.14270472919031,-84.9371086566594,2.8837302590347336,,,,2,0,3,3
1788945042.6170304,130821796.0,-9.34765625,-0.0078125,3.109375,0.05859375,-0.068359375,0.07421875,19.5625,0.3125,-33.5625,19.5625,0.3125,-33.5625,-0.01681994303515756,-0.5819163978328227,0.001408534539641707,0.8130734354780119,3.875914078774519,71.12633583366947,-174.85816595455796,0.5855712890625,0.4139404296875,0.40924072265625,-0.56414794921875,4.088018798523777,71.14270472919031,-84.9371086566594,2.885432266373139,,,,2,0,3,3
1788945042.6150773,130826025.0,-9.38671875,0.03125,3.109375,0.05859375,-0.068359375,0.07421875,19.5625,0.3125,-33.5625,19.5625,0.3125,-33.5625,-0.016796851128751147,-0.5818557966124758,0.001428671958013133,0.8131172465500017,3.8749270152240864,71.11780494622549,-174.86268846966203,0.5855712890625,0.4139404296875,0.40924072265625,-0.56414794921875,4.088018798523777,71.14270472919031,-84.9371086566594,2.888251450931836,,,,2,0,3,3
1788945042.6321528,130830008.0,-9.34765625,0.03125,3.14453125,0.0625,-0.07421875,0.078125,19.3125,1.3125,-32.8125,19.3125,1.3125,-32.8125,-0.016819759145635108,-0.5817551999035526,0.0014278096451788198,0.8131887508119363,3.876024684008618,71.10356965099179,-174.859612032527,0.5858154296875,0.4140625,0.40875244140625,-0.564208984375,4.229826544493475,71.11011692890861,-84.83078088823304,2.7036675755211492,,,,2,0,3,3
1788945042.634106,130834314.0,-9.34765625,0.1484375,3.14453125,0.064453125,-0.078125,0.0859375,19.3125,1.3125,-32.8125,19.3125,1.3125,-32.8125,-0.016884199406120997,-0.581645755377371,0.0014391377939942844,0.8132656810319195,3.8888427442795166,71.08781763559577,-174.84240189217755,0.5858154296875,0.4140625,0.40875244140625,-0.564208984375,4.229826544493475,71.11011692890861,-84.83078088823304,2.7059612781515407,,,,2,0,3,3
1788945042.6431746,130841450.0,-9.34375,0.1875,3.109375,0.0625,-0.078125,0.09375,19.625,2.25,-32.6875,19.625,2.25,-32.6875,-0.017043860984343625,-0.581474004360877,0.0014713145782374198,0.81338510208184,3.9250257824284427,71.06272567638825,-174.79569932271258,0.5860595703125,0.4141845703125,0.40814208984375,-0.56427001953125,4.3926732053592525,71.0522407391227,-84.69170966154797,2.7498856753085583,,,,2,0,3,3
1788945042.6509025,130845786.0,-9.31640625,0.22265625,3.18359375,0.068359375,-0.076171875,0.095703125,19.625,2.25,-32.6875,19.625,2.25,-32.6875,-0.017148150962828356,-0.581349208310613,0.0015005766843129533,0.813472056794082,3.9505356515412746,71.04451027617594,-174.76399160600454,0.58636474609375,0.414306640625,0.40753173828125,-0.56427001953125,4.572319643954121,70.99428921612022,-84.5294329368801,2.7853602486011733,,,,2,0,3,3
1788945042.6548717,130850116.0,-9.34375,0.1875,3.18359375,0.068359375,-0.076171875,0.095703125,19.625,2.25,-32.6875,19.625,2.25,-32.6875,-0.017240741235846103,-0.581230895878491,0.001528660326208527,0.8135545868075064,3.973484672927995,71.02726808199577,-174.73571059992597,0.58636474609375,0.414306640625,0.40753173828125,-0.56427001953125,4.572319643954121,70.99428921612022,-84.5294329368801,2.789252095905517,,,,2,0,3,3
1788945042.660932,130853846.0,-9.3125,0.26171875,3.22265625,0.07421875,-0.087890625,0.095703125,19.625,2.25,-32.6875,19.625,2.25,-32.6875,-0.017329562573304813,-0.5811005998383362,0.001563261428691337,0.8136457062765399,3.997072059931458,71.00831873887579,-174.70763282269834,0.58636474609375,0.414306640625,0.40753173828125,-0.56427001953125,4.572319643954121,70.99428921612022,-84.5294329368801,2.794100577399403,,,,2,0,3,3
1788945042.6629395,130856829.0,-9.31640625,0.26171875,3.30078125,0.07421875,-0.0859375,0.1015625,19.625,2.25,-32.6875,19.625,2.25,-32.6875,-0.017407216526448274,-0.5809839664869794,0.0015989208784588697,0.8137272657038611,4.01910422547945,70.99133415575663,-174.68211819697672,0.586669921875,0.41448974609375,0.40692138671875,-0.56427001953125,4.765050153050651,70.94846349678174,-84.36740310654491,2.7036998963661127,,,,2,0,3,3
1788945042.665128,130861135.0,-9.34765625,0.30078125,3.18359375,0.0859375,-0.078125,0.099609375,19.625,2.25,-32.6875,19.625,2.25,-32.6875,-0.01751109178103262,-0.5808691198361726,0.0016664018021836603,0.8138068876523595,4.05557986454008,70.9742601116202,-174.64261985497166,0.586669921875,0.41448974609375,0.40692138671875,-0.56427001953125,4.765050153050651,70.94846349678174,-84.36740310654491,2.7121189007973183,,,,2,0,3,3
1788945042.667081,130865688.0,-9.3828125,0.37890625,3.109375,0.0859375,-0.078125,0.099609375,19.625,2.25,-32.6875,19.625,2.25,-32.6875,-0.017641459171080506,-0.5807792454694886,0.0017549253918872406,0.8138680281145559,4.1042519601446195,70.96041166923864,-174.59048327875132,0.586669921875,0.41448974609375,0.40692138671875,-0.56427001953125,4.765050153050651,70.94846349678174,-84.36740310654491,2.7228479639262364,,,,2,0,3,3
1788945042.667081,130869347.0,-9.4609375,0.53125,3.22265625,0.091796875,-0.078125,0.099609375,22.6875,-0.625,-38.3125,22.6875,-0.625,-38.3125,-0.017763289316716547,-0.580677143267861,0.0021671937634677387,0.8139372359771472,4.242954883900207,70.94269900065852,-174.47561102659876,0.58697509765625,0.41473388671875,0.40618896484375,-0.5643310546875,4.983329594432738,70.89844620232573,-84.19805302456858,2.605360610539622,,,,2,0,2,3
